SpectraSuite Data File
++++++++++++++++++++++++++++++++++++
Date: Fri May 12 15:29:32 EDT 2017
User: jcherston
Dark Spectrum Present: No
Reference Spectrum Present: No
Number of Sampled Component Spectra: 1
Spectrometers: USB4F06975
Integration Time (usec): 100000 (USB4F06975)
Spectra Averaged: 1 (USB4F06975)
Boxcar Smoothing: 0 (USB4F06975)
Correct for Electrical Dark: No (USB4F06975)
Strobe/Lamp Enabled: No (USB4F06975)
Correct for Detector Non-linearity: No (USB4F06975)
Correct for Stray Light: No (USB4F06975)
Number of Pixels in Processed Spectrum: 3648
>>>>>Begin Processed Spectral Data<<<<<
346.57	1423.34
346.78	1423.34
346.99	1423.34
347.20	1415.15
347.41	1423.34
347.62	1585.13
347.83	1576.94
348.04	1605.61
348.25	1591.27
348.46	1593.32
348.67	1699.81
348.88	1548.26
349.09	1607.66
349.30	1630.18
349.51	1550.31
349.72	1574.89
349.93	1599.46
350.14	1574.89
350.35	1587.18
350.56	1681.38
350.77	1677.29
350.98	1597.42
351.19	1650.66
351.40	1595.37
351.61	1570.79
351.82	1538.02
352.03	1556.46
352.24	1603.56
352.45	1597.42
352.66	1630.18
352.87	1605.61
353.08	1503.21
353.29	1638.38
353.50	1583.08
353.71	1652.71
353.92	1619.94
354.13	1628.14
354.34	1513.45
354.55	1550.31
354.76	1591.27
354.97	1636.33
355.18	1556.46
355.39	1593.32
355.60	1677.29
355.80	1593.32
356.01	1572.84
356.22	1599.46
356.43	1529.83
356.64	1533.93
356.85	1544.17
357.06	1605.61
357.27	1640.42
357.48	1587.18
357.69	1570.79
357.90	1630.18
358.11	1572.84
358.32	1603.56
358.53	1544.17
358.74	1564.65
358.95	1570.79
359.16	1609.70
359.37	1574.89
359.58	1581.03
359.79	1562.60
360.00	1568.74
360.21	1552.36
360.42	1591.27
360.63	1529.83
360.84	1613.80
361.05	1605.61
361.26	1572.84
361.46	1566.70
361.67	1544.17
361.88	1554.41
362.09	1572.84
362.30	1611.75
362.51	1683.43
362.72	1558.50
362.93	1533.93
363.14	1587.18
363.35	1548.26
363.56	1576.94
363.77	1603.56
363.98	1605.61
364.19	1624.04
364.40	1538.02
364.61	1638.38
364.82	1593.32
365.03	1621.99
365.24	1601.51
365.44	1490.92
365.65	1583.08
365.86	1667.05
366.07	1597.42
366.28	1529.83
366.49	1578.98
366.70	1669.09
366.91	1587.18
367.12	1613.80
367.33	1566.70
367.54	1613.80
367.75	1632.23
367.96	1525.74
368.17	1562.60
368.38	1603.56
368.58	1535.98
368.79	1644.52
369.00	1648.61
369.21	1540.07
369.42	1669.09
369.63	1599.46
369.84	1583.08
370.05	1615.85
370.26	1486.83
370.47	1638.38
370.68	1576.94
370.89	1589.22
371.09	1507.30
371.30	1638.38
371.51	1578.98
371.72	1591.27
371.93	1609.70
372.14	1542.12
372.35	1644.52
372.56	1597.42
372.77	1546.22
372.98	1597.42
373.19	1554.41
373.40	1546.22
373.60	1578.98
373.81	1601.51
374.02	1572.84
374.23	1581.03
374.44	1544.17
374.65	1628.14
374.86	1662.95
375.07	1554.41
375.28	1548.26
375.49	1648.61
375.69	1591.27
375.90	1540.07
376.11	1527.78
376.32	1609.70
376.53	1552.36
376.74	1607.66
376.95	1578.98
377.16	1665.00
377.37	1636.33
377.58	1607.66
377.78	1574.89
377.99	1550.31
378.20	1609.70
378.41	1619.94
378.62	1644.52
378.83	1587.18
379.04	1644.52
379.25	1587.18
379.46	1535.98
379.66	1562.60
379.87	1642.47
380.08	1603.56
380.29	1636.33
380.50	1599.46
380.71	1607.66
380.92	1570.79
381.13	1630.18
381.33	1535.98
381.54	1632.23
381.75	1650.66
381.96	1566.70
382.17	1587.18
382.38	1533.93
382.59	1572.84
382.80	1581.03
383.00	1615.85
383.21	1591.27
383.42	1492.97
383.63	1529.83
383.84	1603.56
384.05	1587.18
384.26	1613.80
384.47	1548.26
384.67	1630.18
384.88	1554.41
385.09	1621.99
385.30	1679.33
385.51	1591.27
385.72	1548.26
385.93	1488.87
386.13	1648.61
386.34	1583.08
386.55	1578.98
386.76	1538.02
386.97	1595.37
387.18	1558.50
387.39	1621.99
387.59	1624.04
387.80	1603.56
388.01	1650.66
388.22	1630.18
388.43	1538.02
388.64	1540.07
388.85	1611.75
389.05	1617.90
389.26	1693.67
389.47	1570.79
389.68	1628.14
389.89	1505.26
390.10	1603.56
390.31	1568.74
390.51	1554.41
390.72	1546.22
390.93	1529.83
391.14	1636.33
391.35	1517.54
391.56	1576.94
391.76	1572.84
391.97	1607.66
392.18	1587.18
392.39	1548.26
392.60	1667.05
392.81	1525.74
393.01	1581.03
393.22	1605.61
393.43	1548.26
393.64	1548.26
393.85	1621.99
394.06	1619.94
394.26	1605.61
394.47	1611.75
394.68	1626.09
394.89	1572.84
395.10	1621.99
395.31	1669.09
395.51	1646.57
395.72	1576.94
395.93	1630.18
396.14	1603.56
396.35	1624.04
396.55	1529.83
396.76	1538.02
396.97	1535.98
397.18	1542.12
397.39	1533.93
397.60	1603.56
397.80	1531.88
398.01	1556.46
398.22	1597.42
398.43	1556.46
398.64	1515.50
398.84	1546.22
399.05	1632.23
399.26	1574.89
399.47	1562.60
399.68	1542.12
399.88	1667.05
400.09	1605.61
400.30	1740.77
400.51	1587.18
400.72	1546.22
400.92	1593.32
401.13	1538.02
401.34	1558.50
401.55	1654.76
401.76	1607.66
401.96	1599.46
402.17	1609.70
402.38	1607.66
402.59	1712.10
402.80	2029.54
403.00	1611.75
403.21	1585.13
403.42	1589.22
403.63	1611.75
403.84	1597.42
404.04	1634.28
404.25	1550.31
404.46	1599.46
404.67	1570.79
404.88	1632.23
405.08	1648.61
405.29	1591.27
405.50	1603.56
405.71	1523.69
405.91	1564.65
406.12	1636.33
406.33	1554.41
406.54	1513.45
406.75	1550.31
406.95	1558.50
407.16	1624.04
407.37	1591.27
407.58	1587.18
407.78	1824.74
407.99	1632.23
408.20	1587.18
408.41	1648.61
408.62	1585.13
408.82	1538.02
409.03	1521.64
409.24	1638.38
409.45	1624.04
409.65	1578.98
409.86	1568.74
410.07	1566.70
410.28	1550.31
410.48	1626.09
410.69	1583.08
410.90	1619.94
411.11	1578.98
411.31	1624.04
411.52	1570.79
411.73	1562.60
411.94	1542.12
412.14	1654.76
412.35	1574.89
412.56	1564.65
412.77	1535.98
412.98	1472.49
413.18	1488.87
413.39	1628.14
413.60	1558.50
413.81	1624.04
414.01	1624.04
414.22	1484.78
414.43	1609.70
414.64	1519.59
414.84	1634.28
415.05	1535.98
415.26	1529.83
415.46	1564.65
415.67	1503.21
415.88	1519.59
416.09	1562.60
416.29	1521.64
416.50	1634.28
416.71	1550.31
416.92	1578.98
417.12	1581.03
417.33	1634.28
417.54	1576.94
417.75	1574.89
417.95	1605.61
418.16	1636.33
418.37	1609.70
418.58	1517.54
418.78	1540.07
418.99	1581.03
419.20	1630.18
419.40	1601.51
419.61	1566.70
419.82	1601.51
420.03	1648.61
420.23	1632.23
420.44	1603.56
420.65	1589.22
420.85	1558.50
421.06	1654.76
421.27	1601.51
421.48	1640.42
421.68	1564.65
421.89	1611.75
422.10	1589.22
422.30	1644.52
422.51	1515.50
422.72	1515.50
422.93	1621.99
423.13	1517.54
423.34	1621.99
423.55	1599.46
423.75	1624.04
423.96	1605.61
424.17	1617.90
424.38	1607.66
424.58	1570.79
424.79	1613.80
425.00	1621.99
425.20	1540.07
425.41	1656.81
425.62	1527.78
425.83	1519.59
426.03	1523.69
426.24	1693.67
426.45	1562.60
426.65	1599.46
426.86	1499.11
427.07	1558.50
427.27	1652.71
427.48	1695.72
427.69	1587.18
427.89	1558.50
428.10	1615.85
428.31	1591.27
428.52	1589.22
428.72	1554.41
428.93	1638.38
429.14	1673.19
429.34	1548.26
429.55	1581.03
429.76	1648.61
429.96	1562.60
430.17	1714.15
430.38	1636.33
430.58	1568.74
430.79	1558.50
431.00	1560.55
431.20	1578.98
431.41	1495.02
431.62	1671.14
431.82	1607.66
432.03	1570.79
432.24	1624.04
432.44	1611.75
432.65	1644.52
432.86	1587.18
433.06	1626.09
433.27	1574.89
433.48	1636.33
433.68	1587.18
433.89	1572.84
434.10	1621.99
434.30	1574.89
434.51	1542.12
434.72	1511.40
434.92	1574.89
435.13	1603.56
435.34	1587.18
435.54	1525.74
435.75	1578.98
435.96	1546.22
436.16	1587.18
436.37	1505.26
436.58	1574.89
436.78	1556.46
436.99	1636.33
437.20	1542.12
437.40	1603.56
437.61	1583.08
437.82	1583.08
438.02	1656.81
438.23	1581.03
438.43	1662.95
438.64	1578.98
438.85	1613.80
439.05	1611.75
439.26	1605.61
439.47	1628.14
439.67	1578.98
439.88	1593.32
440.09	1558.50
440.29	1634.28
440.50	1570.79
440.71	1576.94
440.91	1599.46
441.12	1621.99
441.32	1566.70
441.53	1591.27
441.74	1605.61
441.94	1509.35
442.15	1540.07
442.36	1685.48
442.56	1701.86
442.77	1619.94
442.97	1568.74
443.18	1730.53
443.39	1619.94
443.59	1578.98
443.80	1583.08
444.01	1646.57
444.21	1681.38
444.42	1578.98
444.62	1568.74
444.83	1558.50
445.04	1658.85
445.24	1572.84
445.45	1595.37
445.66	1648.61
445.86	1546.22
446.07	1628.14
446.27	1578.98
446.48	1601.51
446.69	1621.99
446.89	1611.75
447.10	1484.78
447.30	1595.37
447.51	1656.81
447.72	1669.09
447.92	1685.48
448.13	1558.50
448.33	1574.89
448.54	1568.74
448.75	1464.30
448.95	1656.81
449.16	1548.26
449.36	1576.94
449.57	1595.37
449.78	1636.33
449.98	1650.66
450.19	1564.65
450.39	1574.89
450.60	1644.52
450.81	1611.75
451.01	1560.55
451.22	1507.30
451.42	1542.12
451.63	1550.31
451.84	1624.04
452.04	1634.28
452.25	1621.99
452.45	1619.94
452.66	1595.37
452.86	1632.23
453.07	1660.90
453.28	1603.56
453.48	1583.08
453.69	1572.84
453.89	1564.65
454.10	1574.89
454.30	1578.98
454.51	1572.84
454.72	1581.03
454.92	1505.26
455.13	1611.75
455.33	1585.13
455.54	1626.09
455.74	1581.03
455.95	1583.08
456.16	1603.56
456.36	1583.08
456.57	1589.22
456.77	1652.71
456.98	1644.52
457.18	1560.55
457.39	1513.45
457.60	1556.46
457.80	1679.33
458.01	1689.57
458.21	1599.46
458.42	1617.90
458.62	1583.08
458.83	1564.65
459.03	1601.51
459.24	1656.81
459.45	1619.94
459.65	1546.22
459.86	1632.23
460.06	1640.42
460.27	1619.94
460.47	1540.07
460.68	1669.09
460.88	1613.80
461.09	1525.74
461.30	1662.95
461.50	1640.42
461.71	1603.56
461.91	1562.60
462.12	1554.41
462.32	1550.31
462.53	1658.85
462.73	1550.31
462.94	1587.18
463.14	1726.44
463.35	1546.22
463.55	1585.13
463.76	1564.65
463.96	1542.12
464.17	1742.82
464.38	1576.94
464.58	1613.80
464.79	1587.18
464.99	1621.99
465.20	1650.66
465.40	1562.60
465.61	1497.07
465.81	1642.47
466.02	1570.79
466.22	1550.31
466.43	1576.94
466.63	1654.76
466.84	1640.42
467.04	1574.89
467.25	1595.37
467.45	1599.46
467.66	1576.94
467.86	1593.32
468.07	1533.93
468.27	1599.46
468.48	1652.71
468.68	1615.85
468.89	1624.04
469.09	1515.50
469.30	1572.84
469.51	1652.71
469.71	1669.09
469.92	1628.14
470.12	1621.99
470.33	1679.33
470.53	1578.98
470.74	1564.65
470.94	1521.64
471.15	1523.69
471.35	1959.91
471.56	1654.76
471.76	1574.89
471.97	1576.94
472.17	1597.42
472.38	1599.46
472.58	1660.90
472.78	1519.59
472.99	1578.98
473.19	1574.89
473.40	1562.60
473.60	1654.76
473.81	1497.07
474.01	1540.07
474.22	1578.98
474.42	1665.00
474.63	1593.32
474.83	1562.60
475.04	1566.70
475.24	1681.38
475.45	1712.10
475.65	1554.41
475.86	1585.13
476.06	1636.33
476.27	1591.27
476.47	1646.57
476.68	1638.38
476.88	1589.22
477.09	1558.50
477.29	1523.69
477.50	1472.49
477.70	1665.00
477.90	1505.26
478.11	1554.41
478.31	1619.94
478.52	1632.23
478.72	1542.12
478.93	1552.36
479.13	1634.28
479.34	1560.55
479.54	1568.74
479.75	1607.66
479.95	1574.89
480.16	1587.18
480.36	1589.22
480.56	1599.46
480.77	1611.75
480.97	1662.95
481.18	1572.84
481.38	1599.46
481.59	1652.71
481.79	1617.90
482.00	1656.81
482.20	1689.57
482.41	1771.49
482.61	1669.09
482.81	1607.66
483.02	1609.70
483.22	1595.37
483.43	1632.23
483.63	1609.70
483.84	1538.02
484.04	1671.14
484.24	1525.74
484.45	1605.61
484.65	1531.88
484.86	1544.17
485.06	1566.70
485.27	1630.18
485.47	1546.22
485.68	1587.18
485.88	1619.94
486.08	1564.65
486.29	1607.66
486.49	1710.05
486.70	1574.89
486.90	1615.85
487.11	1634.28
487.31	1478.63
487.51	1570.79
487.72	1638.38
487.92	1638.38
488.13	1667.05
488.33	1574.89
488.53	1574.89
488.74	1595.37
488.94	1587.18
489.15	1617.90
489.35	1570.79
489.56	1497.07
489.76	1654.76
489.96	1509.35
490.17	1589.22
490.37	1605.61
490.58	1662.95
490.78	1654.76
490.98	1570.79
491.19	1566.70
491.39	1578.98
491.60	1628.14
491.80	1492.97
492.00	1591.27
492.21	1640.42
492.41	1626.09
492.62	1646.57
492.82	1501.16
493.02	1611.75
493.23	1646.57
493.43	1595.37
493.64	1511.40
493.84	1652.71
494.04	1593.32
494.25	1603.56
494.45	1599.46
494.66	1673.19
494.86	1621.99
495.06	1587.18
495.27	1644.52
495.47	1634.28
495.67	1642.47
495.88	1560.55
496.08	1570.79
496.29	1593.32
496.49	1605.61
496.69	1652.71
496.90	1628.14
497.10	1615.85
497.30	1587.18
497.51	1585.13
497.71	1626.09
497.92	1652.71
498.12	1673.19
498.32	1646.57
498.53	1691.62
498.73	1591.27
498.93	1626.09
499.14	1611.75
499.34	1636.33
499.55	1652.71
499.75	1574.89
499.95	1593.32
500.16	1630.18
500.36	1626.09
500.56	1611.75
500.77	1531.88
500.97	1619.94
501.17	1669.09
501.38	1568.74
501.58	1593.32
501.79	1658.85
501.99	1587.18
502.19	1593.32
502.40	1583.08
502.60	1634.28
502.80	1611.75
503.01	1583.08
503.21	1570.79
503.41	1581.03
503.62	1677.29
503.82	1513.45
504.02	1525.74
504.23	1621.99
504.43	1578.98
504.63	1652.71
504.84	1607.66
505.04	1636.33
505.24	1667.05
505.45	1558.50
505.65	1591.27
505.85	1595.37
506.06	1652.71
506.26	1587.18
506.46	1578.98
506.67	1685.48
506.87	1611.75
507.07	1587.18
507.28	1587.18
507.48	1724.39
507.68	1587.18
507.89	1615.85
508.09	1644.52
508.29	1621.99
508.50	1607.66
508.70	1693.67
508.90	1564.65
509.11	1675.24
509.31	1662.95
509.51	1621.99
509.72	1685.48
509.92	1542.12
510.12	1570.79
510.32	1640.42
510.53	1585.13
510.73	1660.90
510.93	1566.70
511.14	1587.18
511.34	1634.28
511.54	1630.18
511.75	1638.38
511.95	1624.04
512.15	1578.98
512.36	1652.71
512.56	1581.03
512.76	1587.18
512.96	1644.52
513.17	1699.81
513.37	1615.85
513.57	1576.94
513.78	1613.80
513.98	1578.98
514.18	1603.56
514.38	1619.94
514.59	1578.98
514.79	1566.70
514.99	1578.98
515.20	1654.76
515.40	1515.50
515.60	1677.29
515.80	1624.04
516.01	1574.89
516.21	1658.85
516.41	1593.32
516.62	1587.18
516.82	1546.22
517.02	1671.14
517.22	1587.18
517.43	1646.57
517.63	1611.75
517.83	1564.65
518.04	1665.00
518.24	1642.47
518.44	1554.41
518.64	1615.85
518.85	1648.61
519.05	1660.90
519.25	1578.98
519.45	1665.00
519.66	1683.43
519.86	1568.74
520.06	1558.50
520.26	1628.14
520.47	1619.94
520.67	1654.76
520.87	1624.04
521.08	1638.38
521.28	1581.03
521.48	1734.63
521.68	1636.33
521.89	1617.90
522.09	1665.00
522.29	1556.46
522.49	1640.42
522.70	1662.95
522.90	1763.30
523.10	1609.70
523.30	1603.56
523.51	1632.23
523.71	1585.13
523.91	1574.89
524.11	1630.18
524.31	1656.81
524.52	1677.29
524.72	1578.98
524.92	1593.32
525.12	1533.93
525.33	1603.56
525.53	1564.65
525.73	1599.46
525.93	1564.65
526.14	1617.90
526.34	1613.80
526.54	1662.95
526.74	1660.90
526.95	1699.81
527.15	1609.70
527.35	1601.51
527.55	1679.33
527.75	1495.02
527.96	1560.55
528.16	1654.76
528.36	1527.78
528.56	1611.75
528.77	1605.61
528.97	1648.61
529.17	1654.76
529.37	1628.14
529.57	1679.33
529.78	1638.38
529.98	1660.90
530.18	1636.33
530.38	1556.46
530.58	1570.79
530.79	1630.18
530.99	1587.18
531.19	1619.94
531.39	1587.18
531.59	1687.53
531.80	1687.53
532.00	1574.89
532.20	1652.71
532.40	1628.14
532.60	1691.62
532.81	1599.46
533.01	1624.04
533.21	1589.22
533.41	1613.80
533.61	1583.08
533.82	1591.27
534.02	1587.18
534.22	1652.71
534.42	1648.61
534.62	1695.72
534.83	1671.14
535.03	1675.24
535.23	1570.79
535.43	1648.61
535.63	1611.75
535.83	1658.85
536.04	1646.57
536.24	1681.38
536.44	1587.18
536.64	1576.94
536.84	1619.94
537.05	1636.33
537.25	1654.76
537.45	1634.28
537.65	1687.53
537.85	1630.18
538.05	1621.99
538.26	1687.53
538.46	1621.99
538.66	1626.09
538.86	1619.94
539.06	1660.90
539.26	1628.14
539.47	1607.66
539.67	1578.98
539.87	1677.29
540.07	1652.71
540.27	1703.91
540.47	1632.23
540.68	1724.39
540.88	1679.33
541.08	1558.50
541.28	1652.71
541.48	1677.29
541.68	1566.70
541.88	1732.58
542.09	1578.98
542.29	1578.98
542.49	1640.42
542.69	1777.64
542.89	1667.05
543.09	1656.81
543.29	1695.72
543.50	1660.90
543.70	1613.80
543.90	1677.29
544.10	1646.57
544.30	1589.22
544.50	1597.42
544.70	1531.88
544.91	1697.77
545.11	1640.42
545.31	1710.05
545.51	1701.86
545.71	1697.77
545.91	1701.86
546.11	1638.38
546.31	1599.46
546.52	1640.42
546.72	1660.90
546.92	1658.85
547.12	1675.24
547.32	1687.53
547.52	1636.33
547.72	1652.71
547.92	1638.38
548.13	1613.80
548.33	1609.70
548.53	1697.77
548.73	1693.67
548.93	1697.77
549.13	1658.85
549.33	1632.23
549.53	1675.24
549.73	1607.66
549.94	1636.33
550.14	1705.96
550.34	1611.75
550.54	1693.67
550.74	1644.52
550.94	1687.53
551.14	1726.44
551.34	1685.48
551.54	1689.57
551.74	1597.42
551.95	1658.85
552.15	1665.00
552.35	1718.25
552.55	1708.01
552.75	1603.56
552.95	1560.55
553.15	1701.86
553.35	1677.29
553.55	1677.29
553.75	1665.00
553.95	1644.52
554.16	1665.00
554.36	1597.42
554.56	1652.71
554.76	1675.24
554.96	1648.61
555.16	1671.14
555.36	1722.34
555.56	1683.43
555.76	1638.38
555.96	1693.67
556.16	1595.37
556.36	1687.53
556.57	1689.57
556.77	1660.90
556.97	1755.11
557.17	1677.29
557.37	1638.38
557.57	1634.28
557.77	1677.29
557.97	1574.89
558.17	1593.32
558.37	1669.09
558.57	1660.90
558.77	1644.52
558.97	1640.42
559.17	1613.80
559.37	1597.42
559.57	1591.27
559.78	1644.52
559.98	1597.42
560.18	1624.04
560.38	1728.49
560.58	1722.34
560.78	1687.53
560.98	1578.98
561.18	1714.15
561.38	1607.66
561.58	1644.52
561.78	1624.04
561.98	1646.57
562.18	1662.95
562.38	1632.23
562.58	1683.43
562.78	1732.58
562.98	1619.94
563.18	1685.48
563.38	1587.18
563.58	1628.14
563.78	1656.81
563.98	1671.14
564.18	1617.90
564.38	1624.04
564.58	1624.04
564.79	1667.05
564.99	1685.48
565.19	1677.29
565.39	1652.71
565.59	1685.48
565.79	1685.48
565.99	1695.72
566.19	1648.61
566.39	1693.67
566.59	1705.96
566.79	1621.99
566.99	1703.91
567.19	1644.52
567.39	1656.81
567.59	1712.10
567.79	1669.09
567.99	1624.04
568.19	1611.75
568.39	1611.75
568.59	1574.89
568.79	1671.14
568.99	1669.09
569.19	1624.04
569.39	1681.38
569.59	1656.81
569.79	1636.33
569.99	1703.91
570.19	1650.66
570.39	1705.96
570.59	1640.42
570.79	1669.09
570.99	1595.37
571.19	1626.09
571.39	1714.15
571.59	1669.09
571.79	1609.70
571.99	1759.21
572.19	1687.53
572.39	1806.31
572.59	1632.23
572.79	1531.88
572.99	1636.33
573.19	1597.42
573.39	1595.37
573.59	1642.47
573.79	1609.70
573.99	1671.14
574.19	1611.75
574.38	1669.09
574.58	1560.55
574.78	1699.81
574.98	1744.87
575.18	1648.61
575.38	1705.96
575.58	1665.00
575.78	1621.99
575.98	1615.85
576.18	1658.85
576.38	1636.33
576.58	1597.42
576.78	1624.04
576.98	1665.00
577.18	1644.52
577.38	1597.42
577.58	1687.53
577.78	1662.95
577.98	1650.66
578.18	1603.56
578.38	1597.42
578.58	1607.66
578.78	1685.48
578.98	1679.33
579.18	1619.94
579.37	1701.86
579.57	1595.37
579.77	1636.33
579.97	1642.47
580.17	1695.72
580.37	1646.57
580.57	1624.04
580.77	1658.85
580.97	2068.45
581.17	1630.18
581.37	1619.94
581.57	1710.05
581.77	1601.51
581.97	1613.80
582.17	1665.00
582.37	1748.97
582.56	1738.73
582.76	1697.77
582.96	1644.52
583.16	1675.24
583.36	1703.91
583.56	1656.81
583.76	1523.69
583.96	1587.18
584.16	1714.15
584.36	1775.59
584.56	1564.65
584.76	1794.02
584.95	1759.21
585.15	1611.75
585.35	1685.48
585.55	1636.33
585.75	1621.99
585.95	1667.05
586.15	1699.81
586.35	1705.96
586.55	1646.57
586.75	1720.29
586.95	1615.85
587.14	1646.57
587.34	1638.38
587.54	1593.32
587.74	1646.57
587.94	1583.08
588.14	1755.11
588.34	1660.90
588.54	1675.24
588.74	1658.85
588.94	1632.23
589.13	1640.42
589.33	1697.77
589.53	1675.24
589.73	1693.67
589.93	1669.09
590.13	1634.28
590.33	1646.57
590.53	1648.61
590.72	1665.00
590.92	1667.05
591.12	1660.90
591.32	1640.42
591.52	1636.33
591.72	1638.38
591.92	1607.66
592.12	1705.96
592.32	1648.61
592.51	1650.66
592.71	1687.53
592.91	1693.67
593.11	1742.82
593.31	1589.22
593.51	1687.53
593.71	1669.09
593.90	1632.23
594.10	1587.18
594.30	1658.85
594.50	1767.40
594.70	1546.22
594.90	1636.33
595.10	1693.67
595.29	1560.55
595.49	1636.33
595.69	1697.77
595.89	1617.90
596.09	1681.38
596.29	1693.67
596.49	1708.01
596.68	1574.89
596.88	1624.04
597.08	1658.85
597.28	1705.96
597.48	1718.25
597.68	1587.18
597.87	1675.24
598.07	1732.58
598.27	1708.01
598.47	1701.86
598.67	1753.06
598.87	1691.62
599.06	1630.18
599.26	1710.05
599.46	1738.73
599.66	1648.61
599.86	1544.17
600.06	1708.01
600.25	1693.67
600.45	1695.72
600.65	1705.96
600.85	1710.05
601.05	1689.57
601.25	1617.90
601.44	1734.63
601.64	1650.66
601.84	1716.20
602.04	1675.24
602.24	1609.70
602.43	1595.37
602.63	1671.14
602.83	1718.25
603.03	1638.38
603.23	1662.95
603.42	1710.05
603.62	1703.91
603.82	1697.77
604.02	1562.60
604.22	1634.28
604.42	1576.94
604.61	1619.94
604.81	1722.34
605.01	1718.25
605.21	1984.48
605.40	1691.62
605.60	1751.01
605.80	1685.48
606.00	1728.49
606.20	1689.57
606.39	1681.38
606.59	1720.29
606.79	1587.18
606.99	1660.90
607.19	1662.95
607.38	1734.63
607.58	1705.96
607.78	1720.29
607.98	1632.23
608.18	1632.23
608.37	1736.68
608.57	1677.29
608.77	1736.68
608.97	1638.38
609.16	1632.23
609.36	1589.22
609.56	1689.57
609.76	1726.44
609.95	1652.71
610.15	1832.93
610.35	1685.48
610.55	1740.77
610.75	1679.33
610.94	1710.05
611.14	1683.43
611.34	1755.11
611.54	1703.91
611.73	1769.44
611.93	1685.48
612.13	1685.48
612.33	1669.09
612.52	1583.08
612.72	1734.63
612.92	1652.71
613.12	1697.77
613.31	1751.01
613.51	1738.73
613.71	1771.49
613.91	1775.59
614.10	1597.42
614.30	1710.05
614.50	1779.68
614.70	1736.68
614.89	1654.76
615.09	1638.38
615.29	1638.38
615.49	1673.19
615.68	1705.96
615.88	1734.63
616.08	1779.68
616.27	1703.91
616.47	1601.51
616.67	1652.71
616.87	1662.95
617.06	1708.01
617.26	1679.33
617.46	1722.34
617.66	1679.33
617.85	1728.49
618.05	1695.72
618.25	1726.44
618.44	1703.91
618.64	1687.53
618.84	1718.25
619.04	1634.28
619.23	1695.72
619.43	1626.09
619.63	1773.54
619.82	1652.71
620.02	1712.10
620.22	1710.05
620.42	1691.62
620.61	1560.55
620.81	1669.09
621.01	1710.05
621.20	1669.09
621.40	1613.80
621.60	1646.57
621.79	1710.05
621.99	1646.57
622.19	1775.59
622.39	1734.63
622.58	1736.68
622.78	1769.44
622.98	1718.25
623.17	1699.81
623.37	2035.68
623.57	1796.07
623.76	1712.10
623.96	1710.05
624.16	1654.76
624.35	1697.77
624.55	1718.25
624.75	1818.60
624.94	1720.29
625.14	1671.14
625.34	1738.73
625.53	1619.94
625.73	1654.76
625.93	1718.25
626.12	1718.25
626.32	1642.47
626.52	1726.44
626.71	1705.96
626.91	1736.68
627.11	1644.52
627.30	1744.87
627.50	1742.82
627.70	1759.21
627.89	1730.53
628.09	1701.86
628.29	1685.48
628.48	1662.95
628.68	1640.42
628.88	1669.09
629.07	1669.09
629.27	1644.52
629.47	1716.20
629.66	1763.30
629.86	1593.32
630.06	1767.40
630.25	1687.53
630.45	1757.16
630.65	1761.25
630.84	1683.43
631.04	1679.33
631.24	1730.53
631.43	1751.01
631.63	1710.05
631.82	1687.53
632.02	1701.86
632.22	1669.09
632.41	1728.49
632.61	1708.01
632.81	1794.02
633.00	1732.58
633.20	1755.11
633.39	1685.48
633.59	1746.92
633.79	1671.14
633.98	1591.27
634.18	1716.20
634.38	1585.13
634.57	1767.40
634.77	1671.14
634.96	1718.25
635.16	1603.56
635.36	1718.25
635.55	1699.81
635.75	1726.44
635.95	1720.29
636.14	1816.55
636.34	1767.40
636.53	1624.04
636.73	1681.38
636.93	1742.82
637.12	1669.09
637.32	1703.91
637.51	1673.19
637.71	1738.73
637.91	1679.33
638.10	1654.76
638.30	1660.90
638.49	1720.29
638.69	1677.29
638.89	1597.42
639.08	1644.52
639.28	1757.16
639.47	1658.85
639.67	1695.72
639.86	1763.30
640.06	1701.86
640.26	1791.97
640.45	1714.15
640.65	1691.62
640.84	1746.92
641.04	1667.05
641.24	1736.68
641.43	1669.09
641.63	1677.29
641.82	1660.90
642.02	1652.71
642.21	1701.86
642.41	1705.96
642.61	1634.28
642.80	1796.07
643.00	1660.90
643.19	1720.29
643.39	1708.01
643.58	1683.43
643.78	1718.25
643.97	1613.80
644.17	1767.40
644.37	1699.81
644.56	1710.05
644.76	1632.23
644.95	1685.48
645.15	1675.24
645.34	1646.57
645.54	1714.15
645.73	1789.92
645.93	1787.88
646.13	1708.01
646.32	1656.81
646.52	1654.76
646.71	1687.53
646.91	1685.48
647.10	1640.42
647.30	1755.11
647.49	1746.92
647.69	1675.24
647.88	1730.53
648.08	1640.42
648.28	1691.62
648.47	1642.47
648.67	1665.00
648.86	1732.58
649.06	1794.02
649.25	1581.03
649.45	1712.10
649.64	1628.14
649.84	1724.39
650.03	1701.86
650.23	1701.86
650.42	1675.24
650.62	1781.73
650.81	1736.68
651.01	1687.53
651.20	1734.63
651.40	1746.92
651.59	1652.71
651.79	1656.81
651.98	1705.96
652.18	1603.56
652.37	1736.68
652.57	1730.53
652.76	1787.88
652.96	1693.67
653.15	1736.68
653.35	1658.85
653.54	1740.77
653.74	1736.68
653.93	1740.77
654.13	1701.86
654.32	1675.24
654.52	1691.62
654.71	1726.44
654.91	1705.96
655.10	1794.02
655.30	1697.77
655.49	1669.09
655.69	1638.38
655.88	1701.86
656.08	1679.33
656.27	1660.90
656.47	1718.25
656.66	1689.57
656.86	1693.67
657.05	1720.29
657.25	1644.52
657.44	1699.81
657.64	1720.29
657.83	1820.64
658.03	1673.19
658.22	1839.08
658.42	1726.44
658.61	1671.14
658.80	1677.29
659.00	1669.09
659.19	1662.95
659.39	1679.33
659.58	1636.33
659.78	1775.59
659.97	1697.77
660.17	1718.25
660.36	1681.38
660.56	1644.52
660.75	1720.29
660.95	1753.06
661.14	1708.01
661.33	1628.14
661.53	1720.29
661.72	1646.57
661.92	1789.92
662.11	1691.62
662.31	1591.27
662.50	1748.97
662.70	1644.52
662.89	1691.62
663.08	1691.62
663.28	1718.25
663.47	1665.00
663.67	1699.81
663.86	1761.25
664.06	1712.10
664.25	1669.09
664.44	1773.54
664.64	1695.72
664.83	1777.64
665.03	1673.19
665.22	1705.96
665.42	1685.48
665.61	1718.25
665.80	1697.77
666.00	1736.68
666.19	1734.63
666.39	1671.14
666.58	1738.73
666.77	1720.29
666.97	1683.43
667.16	1705.96
667.36	1734.63
667.55	1667.05
667.75	1722.34
667.94	1656.81
668.13	1701.86
668.33	1755.11
668.52	1716.20
668.72	1703.91
668.91	1648.61
669.10	1742.82
669.30	1736.68
669.49	1660.90
669.69	1810.40
669.88	1759.21
670.07	1718.25
670.27	1671.14
670.46	1677.29
670.66	1673.19
670.85	1697.77
671.04	1628.14
671.24	1714.15
671.43	1769.44
671.62	1712.10
671.82	1753.06
672.01	1679.33
672.21	1660.90
672.40	1777.64
672.59	1703.91
672.79	1712.10
672.98	1722.34
673.17	1687.53
673.37	1699.81
673.56	1689.57
673.76	1763.30
673.95	1728.49
674.14	1687.53
674.34	1650.66
674.53	1689.57
674.72	1703.91
674.92	1703.91
675.11	1767.40
675.30	1755.11
675.50	1783.78
675.69	1654.76
675.89	1687.53
676.08	1785.83
676.27	1757.16
676.47	1685.48
676.66	1619.94
676.85	1710.05
677.05	1667.05
677.24	1740.77
677.43	1705.96
677.63	1730.53
677.82	1789.92
678.01	1773.54
678.21	1716.20
678.40	1720.29
678.59	1703.91
678.79	1769.44
678.98	1689.57
679.17	1726.44
679.37	1708.01
679.56	1724.39
679.75	1722.34
679.95	1701.86
680.14	1791.97
680.33	1705.96
680.53	1652.71
680.72	1660.90
680.91	1775.59
681.11	1701.86
681.30	1658.85
681.49	1728.49
681.69	1693.67
681.88	1728.49
682.07	1652.71
682.26	1744.87
682.46	1697.77
682.65	1767.40
682.84	1642.47
683.04	1742.82
683.23	1742.82
683.42	1624.04
683.62	1736.68
683.81	1652.71
684.00	1859.56
684.20	1679.33
684.39	1671.14
684.58	1685.48
684.77	1671.14
684.97	1712.10
685.16	1726.44
685.35	1691.62
685.55	1705.96
685.74	1669.09
685.93	1736.68
686.12	1681.38
686.32	1726.44
686.51	1847.27
686.70	1628.14
686.90	1726.44
687.09	1705.96
687.28	1738.73
687.47	1800.16
687.67	1689.57
687.86	1701.86
688.05	1779.68
688.25	1654.76
688.44	1701.86
688.63	1724.39
688.82	1628.14
689.02	1746.92
689.21	1669.09
689.40	1730.53
689.59	1712.10
689.79	1724.39
689.98	1734.63
690.17	1761.25
690.36	1755.11
690.56	1753.06
690.75	1779.68
690.94	1826.79
691.13	1671.14
691.33	1775.59
691.52	1685.48
691.71	1689.57
691.90	1705.96
692.10	1697.77
692.29	1708.01
692.48	1742.82
692.67	1660.90
692.87	1638.38
693.06	1603.56
693.25	1687.53
693.44	1705.96
693.64	1685.48
693.83	1689.57
694.02	1744.87
694.21	1693.67
694.40	1773.54
694.60	1652.71
694.79	1665.00
694.98	1708.01
695.17	1662.95
695.37	1697.77
695.56	1630.18
695.75	1576.94
695.94	1718.25
696.13	1691.62
696.33	1693.67
696.52	1732.58
696.71	1701.86
696.90	1665.00
697.10	1734.63
697.29	1701.86
697.48	1734.63
697.67	1654.76
697.86	1751.01
698.06	1628.14
698.25	1746.92
698.44	1724.39
698.63	1761.25
698.82	1763.30
699.02	1685.48
699.21	1689.57
699.40	1675.24
699.59	1687.53
699.78	1677.29
699.98	1722.34
700.17	1658.85
700.36	1718.25
700.55	1701.86
700.74	1824.74
700.93	1683.43
701.13	1638.38
701.32	1703.91
701.51	1845.22
701.70	1703.91
701.89	1673.19
702.09	1693.67
702.28	1693.67
702.47	1726.44
702.66	1718.25
702.85	1748.97
703.04	1665.00
703.24	1689.57
703.43	1722.34
703.62	1751.01
703.81	1669.09
704.00	1775.59
704.19	1763.30
704.39	1607.66
704.58	1671.14
704.77	1667.05
704.96	1767.40
705.15	1665.00
705.34	1841.12
705.54	1665.00
705.73	1673.19
705.92	1728.49
706.11	1693.67
706.30	1738.73
706.49	1699.81
706.68	1613.80
706.88	1742.82
707.07	1697.77
707.26	1726.44
707.45	1621.99
707.64	1751.01
707.83	1605.61
708.02	1722.34
708.22	1796.07
708.41	1564.65
708.60	1728.49
708.79	1722.34
708.98	1714.15
709.17	1771.49
709.36	1775.59
709.55	1677.29
709.75	1701.86
709.94	1673.19
710.13	1759.21
710.32	1703.91
710.51	1703.91
710.70	1693.67
710.89	1757.16
711.08	1675.24
711.27	1730.53
711.47	1712.10
711.66	1734.63
711.85	1773.54
712.04	1683.43
712.23	1658.85
712.42	1648.61
712.61	1632.23
712.80	1687.53
712.99	1701.86
713.19	1736.68
713.38	1669.09
713.57	1669.09
713.76	1722.34
713.95	1640.42
714.14	1703.91
714.33	1722.34
714.52	1642.47
714.71	1710.05
714.90	1810.40
715.09	1652.71
715.28	1578.98
715.48	1824.74
715.67	1759.21
715.86	1679.33
716.05	1699.81
716.24	1828.84
716.43	1687.53
716.62	1689.57
716.81	1648.61
717.00	1812.45
717.19	1748.97
717.38	1632.23
717.57	1759.21
717.76	1705.96
717.96	1689.57
718.15	1685.48
718.34	1736.68
718.53	1734.63
718.72	1794.02
718.91	1660.90
719.10	1708.01
719.29	1667.05
719.48	1773.54
719.67	1677.29
719.86	1791.97
720.05	1712.10
720.24	1673.19
720.43	1677.29
720.62	1693.67
720.81	1753.06
721.00	1652.71
721.19	1716.20
721.38	1701.86
721.57	1687.53
721.77	1724.39
721.96	1619.94
722.15	1783.78
722.34	1726.44
722.53	1755.11
722.72	1712.10
722.91	1759.21
723.10	1714.15
723.29	1710.05
723.48	1753.06
723.67	1656.81
723.86	1654.76
724.05	1652.71
724.24	1773.54
724.43	1716.20
724.62	1685.48
724.81	1654.76
725.00	1810.40
725.19	1808.36
725.38	1708.01
725.57	1720.29
725.76	1746.92
725.95	1677.29
726.14	1665.00
726.33	1724.39
726.52	1708.01
726.71	1730.53
726.90	1771.49
727.09	1744.87
727.28	1689.57
727.47	1751.01
727.66	1703.91
727.85	1673.19
728.04	1701.86
728.23	1662.95
728.42	1746.92
728.61	1689.57
728.80	1791.97
728.99	1730.53
729.18	1736.68
729.37	1662.95
729.56	1767.40
729.75	1681.38
729.94	1701.86
730.13	1679.33
730.32	1710.05
730.51	1755.11
730.70	1660.90
730.89	1716.20
731.08	1751.01
731.27	1652.71
731.46	1658.85
731.65	1728.49
731.84	1679.33
732.03	1671.14
732.21	1685.48
732.40	1753.06
732.59	1769.44
732.78	1703.91
732.97	1726.44
733.16	1689.57
733.35	1658.85
733.54	1681.38
733.73	1710.05
733.92	1718.25
734.11	1742.82
734.30	1775.59
734.49	1728.49
734.68	1716.20
734.87	1652.71
735.06	1687.53
735.25	1662.95
735.44	1689.57
735.63	1607.66
735.81	1834.98
736.00	1820.64
736.19	1744.87
736.38	1808.36
736.57	1771.49
736.76	1708.01
736.95	1705.96
737.14	1763.30
737.33	1667.05
737.52	1652.71
737.71	1613.80
737.90	1634.28
738.09	1726.44
738.28	1689.57
738.46	1693.67
738.65	1693.67
738.84	1720.29
739.03	1734.63
739.22	1636.33
739.41	1777.64
739.60	1687.53
739.79	1621.99
739.98	1636.33
740.17	1667.05
740.36	1759.21
740.54	1705.96
740.73	1720.29
740.92	1689.57
741.11	1699.81
741.30	1751.01
741.49	1748.97
741.68	1779.68
741.87	1718.25
742.06	1751.01
742.24	1724.39
742.43	1705.96
742.62	1728.49
742.81	1751.01
743.00	1710.05
743.19	1701.86
743.38	1660.90
743.57	1734.63
743.76	1693.67
743.94	1742.82
744.13	1673.19
744.32	1728.49
744.51	1693.67
744.70	1644.52
744.89	1660.90
745.08	1628.14
745.26	1726.44
745.45	1785.83
745.64	1734.63
745.83	1697.77
746.02	1697.77
746.21	1644.52
746.40	1687.53
746.58	1656.81
746.77	1697.77
746.96	1671.14
747.15	1710.05
747.34	1796.07
747.53	1767.40
747.72	1730.53
747.90	1748.97
748.09	1708.01
748.28	1695.72
748.47	1710.05
748.66	1660.90
748.85	1738.73
749.03	1656.81
749.22	1656.81
749.41	1660.90
749.60	1708.01
749.79	1751.01
749.98	1755.11
750.16	1746.92
750.35	1710.05
750.54	1730.53
750.73	1703.91
750.92	1665.00
751.11	1646.57
751.29	1621.99
751.48	1744.87
751.67	1693.67
751.86	1636.33
752.05	1687.53
752.24	1660.90
752.42	1611.75
752.61	1695.72
752.80	1708.01
752.99	1716.20
753.18	1730.53
753.36	1771.49
753.55	1785.83
753.74	1765.35
753.93	1683.43
754.12	1699.81
754.30	1665.00
754.49	1728.49
754.68	1720.29
754.87	1775.59
755.06	1705.96
755.24	1757.16
755.43	1632.23
755.62	1669.09
755.81	1646.57
755.99	1683.43
756.18	1777.64
756.37	1662.95
756.56	1646.57
756.75	1677.29
756.93	1714.15
757.12	1695.72
757.31	1677.29
757.50	1712.10
757.68	1636.33
757.87	1671.14
758.06	1683.43
758.25	1765.35
758.44	1628.14
758.62	1648.61
758.81	1714.15
759.00	1730.53
759.19	1671.14
759.37	1730.53
759.56	1701.86
759.75	1679.33
759.94	1738.73
760.12	1710.05
760.31	1671.14
760.50	1626.09
760.69	1701.86
760.87	1734.63
761.06	1785.83
761.25	1705.96
761.44	1640.42
761.62	1718.25
761.81	1621.99
762.00	1589.22
762.19	1832.93
762.37	1689.57
762.56	1748.97
762.75	1744.87
762.94	1656.81
763.12	1660.90
763.31	1671.14
763.50	1714.15
763.68	1705.96
763.87	1679.33
764.06	1703.91
764.25	1730.53
764.43	1775.59
764.62	1687.53
764.81	1736.68
764.99	1673.19
765.18	1726.44
765.37	1710.05
765.56	1673.19
765.74	1669.09
765.93	1765.35
766.12	1693.67
766.30	1677.29
766.49	1640.42
766.68	1695.72
766.87	1701.86
767.05	1607.66
767.24	1732.58
767.43	1722.34
767.61	1724.39
767.80	1689.57
767.99	1662.95
768.17	1791.97
768.36	1689.57
768.55	1673.19
768.73	1763.30
768.92	1730.53
769.11	1630.18
769.30	1693.67
769.48	1699.81
769.67	1673.19
769.86	1638.38
770.04	1701.86
770.23	1708.01
770.42	1671.14
770.60	1730.53
770.79	1716.20
770.98	1751.01
771.16	1683.43
771.35	1771.49
771.54	1589.22
771.72	1660.90
771.91	1693.67
772.10	1679.33
772.28	1781.73
772.47	1701.86
772.66	1738.73
772.84	1630.18
773.03	1726.44
773.22	1734.63
773.40	1689.57
773.59	1652.71
773.77	1595.37
773.96	1626.09
774.15	1638.38
774.33	1636.33
774.52	1681.38
774.71	1613.80
774.89	1652.71
775.08	1697.77
775.27	1712.10
775.45	1634.28
775.64	1640.42
775.83	1660.90
776.01	1634.28
776.20	1683.43
776.38	1777.64
776.57	1630.18
776.76	1656.81
776.94	1693.67
777.13	1746.92
777.32	1660.90
777.50	1587.18
777.69	1640.42
777.87	1626.09
778.06	1689.57
778.25	1628.14
778.43	1701.86
778.62	1708.01
778.80	1744.87
778.99	1732.58
779.18	1738.73
779.36	1710.05
779.55	1607.66
779.73	1697.77
779.92	1617.90
780.11	1691.62
780.29	1595.37
780.48	1669.09
780.66	1642.47
780.85	1599.46
781.04	1710.05
781.22	1724.39
781.41	1697.77
781.59	1587.18
781.78	1740.77
781.97	1648.61
782.15	1740.77
782.34	1669.09
782.52	1669.09
782.71	1730.53
782.89	1710.05
783.08	1689.57
783.27	1658.85
783.45	1699.81
783.64	1636.33
783.82	1759.21
784.01	1673.19
784.19	1630.18
784.38	1708.01
784.57	1617.90
784.75	1683.43
784.94	1662.95
785.12	1665.00
785.31	1628.14
785.49	1662.95
785.68	1720.29
785.86	1685.48
786.05	1660.90
786.24	1697.77
786.42	1677.29
786.61	1656.81
786.79	1652.71
786.98	1687.53
787.16	1689.57
787.35	1734.63
787.53	1697.77
787.72	1609.70
787.90	1712.10
788.09	1650.66
788.28	1716.20
788.46	1615.85
788.65	1652.71
788.83	1742.82
789.02	1656.81
789.20	1693.67
789.39	1667.05
789.57	1656.81
789.76	1724.39
789.94	1755.11
790.13	1779.68
790.31	1759.21
790.50	1640.42
790.68	1802.21
790.87	1744.87
791.05	1689.57
791.24	1603.56
791.42	1734.63
791.61	1699.81
791.79	1638.38
791.98	1521.64
792.16	1720.29
792.35	1624.04
792.53	1769.44
792.72	1722.34
792.90	1654.76
793.09	1644.52
793.27	1685.48
793.46	1619.94
793.64	1605.61
793.83	1644.52
794.01	1720.29
794.20	1669.09
794.38	1638.38
794.57	1769.44
794.75	1710.05
794.94	1669.09
795.12	1681.38
795.31	1712.10
795.49	1726.44
795.68	1740.77
795.86	1804.26
796.05	1630.18
796.23	1753.06
796.42	1714.15
796.60	1621.99
796.78	1611.75
796.97	1677.29
797.15	1636.33
797.34	1730.53
797.52	1599.46
797.71	1619.94
797.89	1685.48
798.08	1658.85
798.26	1667.05
798.45	1624.04
798.63	1615.85
798.81	1691.62
799.00	1693.67
799.18	1683.43
799.37	1652.71
799.55	1740.77
799.74	1652.71
799.92	1681.38
800.11	1662.95
800.29	1671.14
800.47	1615.85
800.66	1671.14
800.84	1695.72
801.03	1710.05
801.21	1695.72
801.40	1679.33
801.58	1708.01
801.76	1683.43
801.95	1648.61
802.13	1759.21
802.32	1695.72
802.50	1646.57
802.69	1640.42
802.87	1611.75
803.05	1638.38
803.24	1652.71
803.42	1654.76
803.61	1628.14
803.79	1640.42
803.97	1697.77
804.16	1597.42
804.34	1591.27
804.53	1689.57
804.71	1630.18
804.89	1677.29
805.08	1722.34
805.26	1648.61
805.45	1671.14
805.63	1677.29
805.81	1640.42
806.00	1648.61
806.18	1701.86
806.37	1746.92
806.55	1654.76
806.73	1603.56
806.92	1726.44
807.10	1624.04
807.28	1671.14
807.47	1554.41
807.65	1646.57
807.84	1677.29
808.02	1710.05
808.20	1605.61
808.39	1687.53
808.57	1654.76
808.75	1695.72
808.94	1583.08
809.12	1656.81
809.31	1650.66
809.49	1589.22
809.67	1677.29
809.86	1638.38
810.04	1681.38
810.22	1708.01
810.41	1589.22
810.59	1619.94
810.77	1652.71
810.96	1656.81
811.14	1761.25
811.32	1701.86
811.51	1718.25
811.69	1628.14
811.87	1726.44
812.06	1624.04
812.24	1560.55
812.42	1665.00
812.61	1626.09
812.79	1726.44
812.97	1613.80
813.16	1630.18
813.34	1634.28
813.52	1710.05
813.71	1621.99
813.89	1587.18
814.07	1640.42
814.26	1710.05
814.44	1746.92
814.62	1662.95
814.81	1712.10
814.99	1597.42
815.17	2039.78
815.36	1687.53
815.54	1738.73
815.72	1671.14
815.91	1615.85
816.09	1638.38
816.27	1593.32
816.45	1652.71
816.64	1671.14
816.82	1642.47
817.00	1679.33
817.19	1660.90
817.37	1685.48
817.55	1703.91
817.74	1650.66
817.92	1630.18
818.10	1705.96
818.28	1581.03
818.47	1736.68
818.65	1652.71
818.83	1656.81
819.02	1685.48
819.20	1699.81
819.38	1703.91
819.56	1630.18
819.75	1701.86
819.93	1685.48
820.11	1609.70
820.29	1736.68
820.48	1660.90
820.66	1632.23
820.84	1621.99
821.03	1677.29
821.21	1675.24
821.39	1671.14
821.57	1621.99
821.76	1615.85
821.94	1628.14
822.12	1624.04
822.30	1589.22
822.49	1671.14
822.67	1630.18
822.85	1617.90
823.03	1755.11
823.22	1636.33
823.40	1611.75
823.58	1654.76
823.76	1722.34
823.95	1671.14
824.13	1714.15
824.31	1687.53
824.49	1609.70
824.68	1691.62
824.86	1650.66
825.04	1701.86
825.22	1685.48
825.40	1658.85
825.59	1587.18
825.77	1742.82
825.95	1644.52
826.13	1656.81
826.32	1638.38
826.50	1705.96
826.68	1585.13
826.86	1583.08
827.04	1578.98
827.23	1757.16
827.41	1669.09
827.59	1642.47
827.77	1660.90
827.95	1578.98
828.14	1654.76
828.32	1636.33
828.50	1619.94
828.68	1607.66
828.86	1533.93
829.05	1656.81
829.23	1697.77
829.41	1607.66
829.59	1710.05
829.77	1581.03
829.96	1673.19
830.14	1712.10
830.32	1708.01
830.50	1648.61
830.68	1687.53
830.87	1669.09
831.05	1566.70
831.23	1703.91
831.41	1621.99
831.59	1576.94
831.77	1671.14
831.96	1630.18
832.14	1685.48
832.32	1595.37
832.50	1630.18
832.68	1718.25
832.86	1593.32
833.05	1722.34
833.23	1605.61
833.41	1669.09
833.59	1570.79
833.77	1644.52
833.95	1607.66
834.14	1587.18
834.32	1652.71
834.50	1712.10
834.68	1654.76
834.86	1630.18
835.04	1628.14
835.22	1730.53
835.41	1675.24
835.59	1687.53
835.77	1708.01
835.95	1574.89
836.13	1685.48
836.31	1597.42
836.49	1550.31
836.67	1642.47
836.86	1597.42
837.04	1644.52
837.22	1624.04
837.40	1640.42
837.58	1630.18
837.76	1642.47
837.94	1611.75
838.12	1576.94
838.31	1578.98
838.49	1679.33
838.67	1675.24
838.85	1683.43
839.03	1630.18
839.21	1642.47
839.39	1636.33
839.57	1609.70
839.75	1630.18
839.94	1648.61
840.12	1656.81
840.30	1611.75
840.48	1718.25
840.66	1693.67
840.84	1787.88
841.02	1628.14
841.20	1710.05
841.38	1548.26
841.56	1689.57
841.74	1583.08
841.93	1734.63
842.11	1662.95
842.29	1679.33
842.47	1632.23
842.65	1705.96
842.83	1656.81
843.01	1574.89
843.19	1636.33
843.37	1624.04
843.55	1597.42
843.73	1685.48
843.91	1570.79
844.09	1712.10
844.28	1662.95
844.46	1691.62
844.64	1599.46
844.82	1648.61
845.00	1677.29
845.18	1685.48
845.36	1628.14
845.54	1621.99
845.72	1619.94
845.90	1597.42
846.08	1652.71
846.26	1654.76
846.44	1603.56
846.62	1556.46
846.80	1644.52
846.98	1529.83
847.16	1621.99
847.34	1644.52
847.52	1669.09
847.70	1591.27
847.88	1734.63
848.07	1638.38
848.25	1656.81
848.43	1665.00
848.61	1662.95
848.79	1611.75
848.97	1660.90
849.15	1660.90
849.33	1533.93
849.51	1544.17
849.69	1681.38
849.87	1597.42
850.05	1630.18
850.23	1572.84
850.41	1662.95
850.59	1605.61
850.77	1650.66
850.95	1669.09
851.13	1593.32
851.31	1716.20
851.49	1681.38
851.67	1601.51
851.85	1599.46
852.03	1699.81
852.21	1628.14
852.39	1583.08
852.57	1632.23
852.75	1630.18
852.93	1597.42
853.11	1662.95
853.29	1619.94
853.47	1748.97
853.65	1603.56
853.83	1634.28
854.01	1671.14
854.19	1673.19
854.37	1617.90
854.55	1714.15
854.73	1685.48
854.91	1583.08
855.08	1615.85
855.26	1689.57
855.44	1583.08
855.62	1640.42
855.80	1581.03
855.98	1644.52
856.16	1585.13
856.34	1644.52
856.52	1564.65
856.70	1660.90
856.88	1613.80
857.06	1619.94
857.24	1673.19
857.42	1599.46
857.60	1538.02
857.78	1658.85
857.96	1644.52
858.14	1671.14
858.32	1597.42
858.50	1638.38
858.68	1578.98
858.85	1603.56
859.03	1654.76
859.21	1630.18
859.39	1595.37
859.57	1613.80
859.75	1675.24
859.93	1697.77
860.11	1607.66
860.29	1628.14
860.47	1646.57
860.65	1675.24
860.83	1712.10
861.01	1685.48
861.18	1595.37
861.36	1642.47
861.54	1609.70
861.72	1660.90
861.90	1636.33
862.08	1630.18
862.26	1613.80
862.44	1613.80
862.62	1560.55
862.80	1738.73
862.98	1621.99
863.15	1552.36
863.33	1703.91
863.51	1640.42
863.69	1538.02
863.87	1710.05
864.05	1607.66
864.23	1630.18
864.41	1638.38
864.59	1710.05
864.76	1617.90
864.94	1644.52
865.12	1677.29
865.30	1638.38
865.48	1677.29
865.66	1632.23
865.84	1671.14
866.02	1566.70
866.19	1603.56
866.37	1701.86
866.55	1603.56
866.73	1482.73
866.91	1509.35
867.09	1708.01
867.27	1753.06
867.44	1630.18
867.62	1607.66
867.80	1662.95
867.98	1687.53
868.16	1587.18
868.34	1648.61
868.52	1693.67
868.69	1662.95
868.87	1603.56
869.05	1658.85
869.23	1630.18
869.41	1626.09
869.59	1714.15
869.76	1609.70
869.94	1636.33
870.12	1630.18
870.30	1636.33
870.48	1673.19
870.66	1576.94
870.83	1615.85
871.01	1673.19
871.19	1734.63
871.37	1705.96
871.55	1525.74
871.73	1601.51
871.90	1546.22
872.08	1621.99
872.26	1654.76
872.44	1665.00
872.62	1683.43
872.79	1634.28
872.97	1703.91
873.15	1685.48
873.33	1621.99
873.51	1587.18
873.68	1685.48
873.86	1691.62
874.04	1701.86
874.22	1634.28
874.40	1644.52
874.57	1642.47
874.75	1714.15
874.93	1673.19
875.11	1689.57
875.29	1652.71
875.46	1636.33
875.64	1556.46
875.82	1562.60
876.00	1660.90
876.17	1677.29
876.35	1640.42
876.53	1624.04
876.71	1595.37
876.89	1660.90
877.06	1652.71
877.24	1574.89
877.42	1665.00
877.60	1601.51
877.77	1644.52
877.95	1695.72
878.13	1652.71
878.31	1595.37
878.48	1652.71
878.66	1720.29
878.84	1677.29
879.02	1628.14
879.19	1679.33
879.37	1634.28
879.55	1628.14
879.73	1617.90
879.90	1673.19
880.08	1585.13
880.26	1705.96
880.44	1634.28
880.61	1685.48
880.79	1583.08
880.97	1605.61
881.15	1576.94
881.32	1550.31
881.50	1585.13
881.68	1607.66
881.85	1724.39
882.03	1667.05
882.21	1576.94
882.39	1613.80
882.56	1609.70
882.74	1726.44
882.92	1673.19
883.09	1617.90
883.27	1660.90
883.45	1689.57
883.63	1634.28
883.80	1654.76
883.98	1681.38
884.16	1562.60
884.33	1689.57
884.51	1550.31
884.69	1619.94
884.87	1560.55
885.04	1703.91
885.22	1714.15
885.40	1611.75
885.57	1710.05
885.75	1687.53
885.93	1671.14
886.10	1599.46
886.28	1589.22
886.46	1667.05
886.63	1572.84
886.81	1626.09
886.99	1681.38
887.16	1546.22
887.34	1650.66
887.52	1613.80
887.69	1581.03
887.87	1613.80
888.05	1685.48
888.22	1603.56
888.40	1660.90
888.58	1576.94
888.75	1574.89
888.93	1564.65
889.11	1624.04
889.28	1634.28
889.46	1640.42
889.64	1597.42
889.81	1570.79
889.99	1578.98
890.17	1638.38
890.34	1587.18
890.52	1703.91
890.70	1613.80
890.87	1652.71
891.05	1626.09
891.22	1652.71
891.40	1583.08
891.58	1632.23
891.75	1648.61
891.93	1589.22
892.11	1683.43
892.28	1535.98
892.46	1689.57
892.63	1554.41
892.81	1630.18
892.99	1638.38
893.16	1656.81
893.34	1630.18
893.52	1640.42
893.69	1583.08
893.87	1587.18
894.04	1617.90
894.22	1624.04
894.40	1687.53
894.57	1656.81
894.75	1650.66
894.92	1613.80
895.10	1677.29
895.28	1634.28
895.45	1644.52
895.63	1617.90
895.80	1550.31
895.98	1554.41
896.16	1538.02
896.33	1687.53
896.51	1679.33
896.68	1656.81
896.86	1619.94
897.04	1683.43
897.21	1601.51
897.39	1644.52
897.56	1589.22
897.74	1621.99
897.91	1570.79
898.09	1671.14
898.27	1634.28
898.44	1638.38
898.62	1648.61
898.79	1562.60
898.97	1669.09
899.14	1675.24
899.32	1619.94
899.49	1669.09
899.67	1644.52
899.85	1583.08
900.02	1603.56
900.20	1665.00
900.37	1595.37
900.55	1585.13
900.72	1523.69
900.90	1650.66
901.07	1654.76
901.25	1630.18
901.43	1685.48
901.60	1597.42
901.78	1673.19
901.95	1611.75
902.13	1603.56
902.30	1687.53
902.48	1607.66
902.65	1550.31
902.83	1615.85
903.00	1554.41
903.18	1628.14
903.35	1648.61
903.53	1654.76
903.70	1603.56
903.88	1671.14
904.05	1615.85
904.23	1681.38
904.40	1640.42
904.58	1628.14
904.75	1572.84
904.93	1628.14
905.10	1718.25
905.28	1654.76
905.45	1660.90
905.63	1703.91
905.80	1574.89
905.98	1638.38
906.15	1646.57
906.33	1546.22
906.50	1667.05
906.68	1613.80
906.85	1619.94
907.03	1595.37
907.20	1609.70
907.38	1640.42
907.55	1621.99
907.73	1628.14
907.90	1595.37
908.08	1585.13
908.25	1621.99
908.43	1621.99
908.60	1660.90
908.78	1605.61
908.95	1550.31
909.13	1701.86
909.30	1615.85
909.47	1572.84
909.65	1646.57
909.82	1656.81
910.00	1601.51
910.17	1746.92
910.35	1546.22
910.52	1603.56
910.70	1611.75
910.87	1683.43
911.05	1646.57
911.22	1611.75
911.39	1599.46
911.57	1554.41
911.74	1556.46
911.92	1619.94
912.09	1515.50
912.27	1705.96
912.44	1628.14
912.61	1654.76
912.79	1578.98
912.96	1605.61
913.14	1531.88
913.31	1554.41
913.49	1609.70
913.66	1556.46
913.83	1646.57
914.01	1681.38
914.18	1605.61
914.36	1630.18
914.53	1638.38
914.70	1609.70
914.88	1638.38
915.05	1669.09
915.23	1554.41
915.40	1644.52
915.58	1515.50
915.75	1572.84
915.92	1529.83
916.10	1703.91
916.27	1585.13
916.44	1679.33
916.62	1599.46
916.79	1693.67
916.97	1648.61
917.14	1636.33
917.31	1656.81
917.49	1597.42
917.66	1603.56
917.84	1669.09
918.01	1542.12
918.18	1697.77
918.36	1636.33
918.53	1650.66
918.70	1595.37
918.88	1601.51
919.05	1550.31
919.23	1562.60
919.40	1583.08
919.57	1665.00
919.75	1636.33
919.92	1527.78
920.09	1638.38
920.27	1681.38
920.44	1654.76
920.61	1679.33
920.79	1650.66
920.96	1599.46
921.13	1597.42
921.31	1585.13
921.48	1632.23
921.65	1728.49
921.83	1583.08
922.00	1636.33
922.17	1636.33
922.35	1570.79
922.52	1574.89
922.69	1621.99
922.87	1546.22
923.04	1509.35
923.21	1673.19
923.39	1609.70
923.56	1603.56
923.73	1597.42
923.91	1601.51
924.08	1617.90
924.25	1626.09
924.43	1595.37
924.60	1628.14
924.77	1605.61
924.95	1562.60
925.12	1660.90
925.29	1511.40
925.47	1593.32
925.64	1581.03
925.81	1628.14
925.98	1587.18
926.16	1708.01
926.33	1632.23
926.50	1572.84
926.68	1605.61
926.85	1658.85
927.02	1552.36
927.19	1597.42
927.37	1599.46
927.54	1558.50
927.71	1634.28
927.89	1662.95
928.06	1558.50
928.23	1619.94
928.40	1554.41
928.58	1644.52
928.75	1587.18
928.92	1624.04
929.09	1607.66
929.27	1570.79
929.44	1601.51
929.61	1669.09
929.79	1578.98
929.96	1654.76
930.13	1517.54
930.30	1718.25
930.48	1607.66
930.65	1611.75
930.82	1599.46
930.99	1687.53
931.17	1636.33
931.34	1511.40
931.51	1693.67
931.68	1546.22
931.85	1662.95
932.03	1566.70
932.20	1652.71
932.37	1671.14
932.54	1607.66
932.72	1658.85
932.89	1613.80
933.06	1587.18
933.23	1742.82
933.41	1632.23
933.58	1636.33
933.75	1566.70
933.92	1611.75
934.09	1621.99
934.27	1654.76
934.44	1671.14
934.61	1660.90
934.78	1568.74
934.95	1685.48
935.13	1550.31
935.30	1632.23
935.47	1495.02
935.64	1572.84
935.81	1523.69
935.99	1617.90
936.16	1572.84
936.33	1611.75
936.50	1607.66
936.67	1605.61
936.85	1628.14
937.02	1583.08
937.19	1669.09
937.36	1609.70
937.53	1578.98
937.71	1613.80
937.88	1671.14
938.05	1605.61
938.22	1587.18
938.39	1531.88
938.56	1542.12
938.74	1638.38
938.91	1621.99
939.08	1617.90
939.25	1570.79
939.42	1574.89
939.59	1591.27
939.77	1613.80
939.94	1515.50
940.11	1624.04
940.28	1646.57
940.45	1578.98
940.62	1499.11
940.79	1689.57
940.97	1601.51
941.14	1599.46
941.31	1687.53
941.48	1624.04
941.65	1632.23
941.82	1589.22
941.99	1599.46
942.17	1613.80
942.34	1572.84
942.51	1611.75
942.68	1615.85
942.85	1583.08
943.02	1568.74
943.19	1675.24
943.36	1603.56
943.54	1628.14
943.71	1656.81
943.88	1624.04
944.05	1581.03
944.22	1626.09
944.39	1568.74
944.56	1601.51
944.73	1619.94
944.90	1595.37
945.08	1531.88
945.25	1605.61
945.42	1576.94
945.59	1613.80
945.76	1591.27
945.93	1574.89
946.10	1587.18
946.27	1576.94
946.44	1560.55
946.61	1554.41
946.78	1621.99
946.96	1636.33
947.13	1611.75
947.30	1581.03
947.47	1619.94
947.64	1650.66
947.81	1613.80
947.98	1546.22
948.15	1654.76
948.32	1581.03
948.49	1636.33
948.66	1599.46
948.83	1640.42
949.00	1587.18
949.17	1603.56
949.35	1650.66
949.52	1601.51
949.69	1597.42
949.86	1570.79
950.03	1544.17
950.20	1673.19
950.37	1615.85
950.54	1570.79
950.71	1507.30
950.88	1613.80
951.05	1552.36
951.22	1597.42
951.39	1601.51
951.56	1638.38
951.73	1562.60
951.90	1599.46
952.07	1591.27
952.24	1595.37
952.41	1654.76
952.58	1665.00
952.75	1624.04
952.92	1628.14
953.09	1599.46
953.26	1595.37
953.43	1574.89
953.60	1572.84
953.77	1679.33
953.94	1703.91
954.11	1628.14
954.28	1669.09
954.45	1607.66
954.62	1525.74
954.79	1581.03
954.96	1589.22
955.13	1679.33
955.30	1572.84
955.47	1591.27
955.64	1646.57
955.81	1554.41
955.98	1619.94
956.15	1617.90
956.32	1628.14
956.49	1578.98
956.66	1615.85
956.83	1583.08
957.00	1587.18
957.17	1660.90
957.34	1548.26
957.51	1613.80
957.68	1615.85
957.85	1634.28
958.02	1628.14
958.19	1591.27
958.36	1654.76
958.53	1574.89
958.70	1572.84
958.87	1546.22
959.04	1562.60
959.21	1578.98
959.38	1495.02
959.55	1736.68
959.72	1644.52
959.89	1603.56
960.06	1701.86
960.23	1650.66
960.39	1660.90
960.56	1570.79
960.73	1474.54
960.90	1542.12
961.07	1599.46
961.24	1632.23
961.41	1570.79
961.58	1480.68
961.75	1613.80
961.92	1640.42
962.09	1628.14
962.26	1578.98
962.43	1611.75
962.60	1624.04
962.76	1693.67
962.93	1585.13
963.10	1589.22
963.27	1585.13
963.44	1562.60
963.61	1613.80
963.78	1609.70
963.95	1583.08
964.12	1607.66
964.29	1611.75
964.46	1599.46
964.62	1603.56
964.79	1617.90
964.96	1472.49
965.13	1591.27
965.30	1554.41
965.47	1695.72
965.64	1603.56
965.81	1570.79
965.98	1740.77
966.14	1650.66
966.31	1535.98
966.48	1593.32
966.65	1538.02
966.82	1656.81
966.99	1531.88
967.16	1519.59
967.33	1605.61
967.49	1626.09
967.66	1597.42
967.83	1613.80
968.00	1605.61
968.17	1587.18
968.34	1656.81
968.51	1638.38
968.67	1542.12
968.84	1578.98
969.01	1587.18
969.18	1658.85
969.35	1521.64
969.52	1587.18
969.68	1578.98
969.85	1546.22
970.02	1603.56
970.19	1591.27
970.36	1689.57
970.53	1640.42
970.69	1585.13
970.86	1611.75
971.03	1566.70
971.20	1587.18
971.37	1540.07
971.54	1578.98
971.70	1630.18
971.87	1595.37
972.04	1542.12
972.21	1587.18
972.38	1605.61
972.55	1603.56
972.71	1540.07
972.88	1521.64
973.05	1490.92
973.22	1603.56
973.39	1621.99
973.55	1603.56
973.72	1609.70
973.89	1587.18
974.06	1564.65
974.23	1611.75
974.39	1597.42
974.56	1644.52
974.73	1556.46
974.90	1554.41
975.06	1556.46
975.23	1527.78
975.40	1611.75
975.57	1560.55
975.74	1603.56
975.90	1538.02
976.07	1572.84
976.24	1538.02
976.41	1599.46
976.57	1578.98
976.74	1509.35
976.91	1554.41
977.08	1570.79
977.24	1529.83
977.41	1587.18
977.58	1554.41
977.75	1624.04
977.92	1560.55
978.08	1615.85
978.25	1605.61
978.42	1556.46
978.58	1591.27
978.75	1523.69
978.92	1603.56
979.09	1587.18
979.25	1540.07
979.42	1595.37
979.59	1619.94
979.76	1716.20
979.92	1593.32
980.09	1583.08
980.26	1554.41
980.43	1617.90
980.59	1599.46
980.76	1574.89
980.93	1521.64
981.09	1552.36
981.26	1605.61
981.43	1562.60
981.60	1714.15
981.76	1630.18
981.93	1572.84
982.10	1619.94
982.26	1619.94
982.43	1605.61
982.60	1660.90
982.77	1519.59
982.93	1654.76
983.10	1560.55
983.27	1675.24
983.43	1570.79
983.60	1513.45
983.77	1589.22
983.93	1542.12
984.10	1679.33
984.27	1587.18
984.43	1691.62
984.60	1583.08
984.77	1527.78
984.93	1611.75
985.10	1492.97
985.27	1669.09
985.43	1611.75
985.60	1683.43
985.77	1673.19
985.93	1658.85
986.10	1566.70
986.27	1624.04
986.43	1644.52
986.60	1605.61
986.77	1607.66
986.93	1697.77
987.10	1560.55
987.27	1570.79
987.43	1591.27
987.60	1634.28
987.77	1570.79
987.93	1619.94
988.10	1617.90
988.27	1558.50
988.43	1626.09
988.60	1621.99
988.76	1599.46
988.93	1599.46
989.10	1628.14
989.26	1648.61
989.43	1591.27
989.60	1572.84
989.76	1550.31
989.93	1587.18
990.09	1564.65
990.26	1603.56
990.43	1595.37
990.59	1624.04
990.76	1613.80
990.92	1558.50
991.09	1515.50
991.26	1650.66
991.42	1566.70
991.59	1609.70
991.76	1574.89
991.92	1669.09
992.09	1570.79
992.25	1636.33
992.42	1628.14
992.58	1511.40
992.75	1591.27
992.92	1578.98
993.08	1609.70
993.25	1609.70
993.41	1636.33
993.58	1650.66
993.75	1634.28
993.91	1701.86
994.08	1624.04
994.24	1587.18
994.41	1583.08
994.57	1619.94
994.74	1513.45
994.91	1513.45
995.07	1517.54
995.24	1535.98
995.40	1538.02
995.57	1648.61
995.73	1484.78
995.90	1613.80
996.06	1669.09
996.23	1589.22
996.40	1611.75
996.56	1601.51
996.73	1576.94
996.89	1589.22
997.06	1607.66
997.22	1621.99
997.39	1564.65
997.55	1560.55
997.72	1564.65
997.88	1601.51
998.05	1521.64
998.21	1662.95
998.38	1572.84
998.54	1517.54
998.71	1619.94
998.87	1673.19
999.04	1548.26
999.21	1644.52
999.37	1642.47
999.54	1683.43
999.70	1554.41
999.87	1681.38
1000.03	1544.17
1000.20	1589.22
1000.36	1566.70
1000.53	1681.38
1000.69	1550.31
1000.86	1587.18
1001.02	1548.26
1001.19	1589.22
1001.35	1562.60
1001.52	1605.61
1001.68	1505.26
1001.84	1576.94
1002.01	1613.80
1002.17	1624.04
1002.34	1570.79
1002.50	1654.76
1002.67	1513.45
1002.83	1578.98
1003.00	1675.24
1003.16	1648.61
1003.33	1564.65
1003.49	1683.43
1003.66	1662.95
1003.82	1638.38
1003.99	1519.59
1004.15	1601.51
1004.32	1546.22
1004.48	1656.81
1004.64	1550.31
1004.81	1599.46
1004.97	1609.70
1005.14	1673.19
1005.30	1632.23
1005.47	1548.26
1005.63	1650.66
1005.80	1615.85
1005.96	1499.11
1006.12	1632.23
1006.29	1554.41
1006.45	1738.73
1006.62	1540.07
1006.78	1599.46
1006.95	1578.98
1007.11	1533.93
1007.27	1613.80
1007.44	1681.38
1007.60	1542.12
1007.77	1533.93
1007.93	1615.85
1008.09	1624.04
1008.26	1452.01
1008.42	1605.61
1008.59	1628.14
1008.75	1505.26
1008.92	1540.07
1009.08	1648.61
1009.24	1687.53
1009.41	1568.74
1009.57	1556.46
1009.73	1611.75
1009.90	1560.55
1010.06	1630.18
1010.23	1558.50
1010.39	1660.90
1010.55	1591.27
1010.72	1538.02
1010.88	1591.27
1011.05	1615.85
1011.21	1531.88
1011.37	1568.74
1011.54	1669.09
1011.70	1660.90
1011.86	1626.09
1012.03	1564.65
1012.19	1542.12
1012.36	1673.19
1012.52	1640.42
1012.68	1628.14
1012.85	1505.26
1013.01	1544.17
1013.17	1531.88
1013.34	1646.57
1013.50	1546.22
1013.66	1517.54
1013.83	1562.60
1013.99	1546.22
1014.15	1617.90
1014.32	1597.42
1014.48	1570.79
1014.64	1531.88
1014.81	1566.70
1014.97	1556.46
1015.13	1640.42
1015.30	1683.43
1015.46	1583.08
1015.62	1636.33
1015.79	1544.17
1015.95	1621.99
1016.11	1597.42
1016.28	1677.29
1016.44	1589.22
1016.60	1603.56
1016.77	1581.03
1016.93	1533.93
1017.09	1624.04
1017.26	1535.98
1017.42	1603.56
1017.58	1548.26
1017.74	1640.42
1017.91	1621.99
1018.07	1601.51
1018.23	1550.31
1018.40	1593.32
1018.56	1591.27
1018.72	1624.04
1018.88	1531.88
1019.05	1621.99
1019.21	1636.33
1019.37	1603.56
1019.54	1538.02
1019.70	1603.56
1019.86	1542.12
1020.02	1617.90
1020.19	1597.42
1020.35	1484.78
1020.51	1542.12
1020.68	1472.49
1020.84	1550.31
1021.00	1615.85
1021.16	1581.03
1021.33	1572.84
1021.49	1591.27
1021.65	1617.90
1021.81	1607.66
1021.98	1644.52
1022.14	1619.94
1022.30	1578.98
1022.46	1632.23
1022.63	1587.18
1022.79	1646.57
1022.95	1570.79
1023.11	1497.07
1023.27	1572.84
1023.44	1630.18
1023.60	1578.98
1023.76	1529.83
1023.92	1648.61
1024.09	1578.98
1024.25	1714.15
1024.41	1660.90
1024.57	1611.75
1024.74	1587.18
1024.90	1583.08
1025.06	1636.33
1025.22	1562.60
1025.38	1636.33
1025.55	1640.42
1025.71	1576.94
1025.87	1656.81
1026.03	1587.18
1026.19	1562.60
1026.36	1564.65
1026.52	1646.57
1026.68	1531.88
1026.84	1583.08
1027.00	1613.80
1027.17	1572.84
1027.33	1615.85
1027.49	1552.36
1027.65	1570.79
1027.81	1578.98
1027.97	1570.79
1028.14	1597.42
1028.30	1621.99
1028.46	1554.41
1028.62	1652.71
1028.78	1574.89
1028.94	1648.61
1029.11	1630.18
1029.27	1646.57
1029.43	1552.36
1029.59	1632.23
1029.75	1554.41
1029.91	1538.02
1030.08	1710.05
1030.24	1554.41
1030.40	1574.89
1030.56	1527.78
1030.72	1564.65
1030.88	1593.32
1031.04	1509.35
1031.21	1607.66
1031.37	1578.98
1031.53	1648.61
1031.69	1624.04
1031.85	1589.22
1032.01	1585.13
1032.17	1570.79
1032.34	1615.85
1032.50	1605.61
1032.66	1529.83
1032.82	1628.14
1032.98	1650.66
1033.14	1710.05
1033.30	1589.22
1033.46	1638.38
1033.62	1583.08
1033.79	1599.46
1033.95	1667.05
1034.11	1638.38
1034.27	1603.56
1034.43	1597.42
1034.59	1570.79
1034.75	1566.70
1034.91	1595.37
1035.07	1656.81
1035.23	1636.33
1035.40	1587.18
1035.56	1656.81
1035.72	1640.42
1035.88	1568.74
1036.04	1501.16
1036.20	1681.38
>>>>>End Processed Spectral Data<<<<<
