SpectraSuite Data File
++++++++++++++++++++++++++++++++++++
Date: Fri May 12 15:38:22 EDT 2017
User: jcherston
Dark Spectrum Present: Yes
Reference Spectrum Present: Yes
Number of Sampled Component Spectra: 1
Spectrometers: USB4F06975
Integration Time (usec): 100000 (USB4F06975)
Spectra Averaged: 1 (USB4F06975)
Boxcar Smoothing: 0 (USB4F06975)
Correct for Electrical Dark: No (USB4F06975)
Strobe/Lamp Enabled: No (USB4F06975)
Correct for Detector Non-linearity: No (USB4F06975)
Correct for Stray Light: No (USB4F06975)
Number of Pixels in Processed Spectrum: 3648
>>>>>Begin Processed Spectral Data<<<<<
346.57	1441.77
346.78	1441.77
346.99	1441.77
347.20	1429.48
347.41	1466.35
347.62	1583.08
347.83	1570.79
348.04	1589.22
348.25	1619.94
348.46	1689.57
348.67	1644.52
348.88	1611.75
349.09	1578.98
349.30	1570.79
349.51	1646.57
349.72	1665.00
349.93	1593.32
350.14	1615.85
350.35	1558.50
350.56	1628.14
350.77	1699.81
350.98	1660.90
351.19	1550.31
351.40	1554.41
351.61	1613.80
351.82	1581.03
352.03	1544.17
352.24	1689.57
352.45	1660.90
352.66	1587.18
352.87	1540.07
353.08	1603.56
353.29	1656.81
353.50	1636.33
353.71	1697.77
353.92	1589.22
354.13	1654.76
354.34	1556.46
354.55	1562.60
354.76	1587.18
354.97	1660.90
355.18	1593.32
355.39	1576.94
355.60	1605.61
355.80	1658.85
356.01	1523.69
356.22	1585.13
356.43	1654.76
356.64	1607.66
356.85	1568.74
357.06	1621.99
357.27	1568.74
357.48	1646.57
357.69	1609.70
357.90	1687.53
358.11	1605.61
358.32	1597.42
358.53	1603.56
358.74	1587.18
358.95	1605.61
359.16	1624.04
359.37	1599.46
359.58	1654.76
359.79	1562.60
360.00	1607.66
360.21	1587.18
360.42	1621.99
360.63	1505.26
360.84	1605.61
361.05	1621.99
361.26	1624.04
361.46	1576.94
361.67	1558.50
361.88	1601.51
362.09	1558.50
362.30	1615.85
362.51	1644.52
362.72	1587.18
362.93	1619.94
363.14	1595.37
363.35	1578.98
363.56	1538.02
363.77	1601.51
363.98	1652.71
364.19	1652.71
364.40	1570.79
364.61	1628.14
364.82	1533.93
365.03	1595.37
365.24	1650.66
365.44	1587.18
365.65	1576.94
365.86	1669.09
366.07	1638.38
366.28	1595.37
366.49	1673.19
366.70	1585.13
366.91	1619.94
367.12	1562.60
367.33	1636.33
367.54	1611.75
367.75	1652.71
367.96	1568.74
368.17	1560.55
368.38	1626.09
368.58	1603.56
368.79	1669.09
369.00	1550.31
369.21	1660.90
369.42	1624.04
369.63	1597.42
369.84	1607.66
370.05	1574.89
370.26	1607.66
370.47	1531.88
370.68	1636.33
370.89	1638.38
371.09	1679.33
371.30	1605.61
371.51	1660.90
371.72	1685.48
371.93	1703.91
372.14	1630.18
372.35	1671.14
372.56	1583.08
372.77	1521.64
372.98	1597.42
373.19	1621.99
373.40	1665.00
373.60	1638.38
373.81	1636.33
374.02	1613.80
374.23	1607.66
374.44	1595.37
374.65	1685.48
374.86	1605.61
375.07	1658.85
375.28	1660.90
375.49	1591.27
375.69	1587.18
375.90	1652.71
376.11	1546.22
376.32	1578.98
376.53	1609.70
376.74	1603.56
376.95	1665.00
377.16	1529.83
377.37	1574.89
377.58	1581.03
377.78	1552.36
377.99	1542.12
378.20	1597.42
378.41	1605.61
378.62	1603.56
378.83	1546.22
379.04	1701.86
379.25	1599.46
379.46	1581.03
379.66	1677.29
379.87	1599.46
380.08	1654.76
380.29	1591.27
380.50	1644.52
380.71	1505.26
380.92	1632.23
381.13	1615.85
381.33	1578.98
381.54	1628.14
381.75	1583.08
381.96	1548.26
382.17	1624.04
382.38	1671.14
382.59	1603.56
382.80	1636.33
383.00	1597.42
383.21	1624.04
383.42	1560.55
383.63	1492.97
383.84	1636.33
384.05	1519.59
384.26	1581.03
384.47	1560.55
384.67	1689.57
384.88	1562.60
385.09	1585.13
385.30	1658.85
385.51	1642.47
385.72	1581.03
385.93	1609.70
386.13	1570.79
386.34	1632.23
386.55	1630.18
386.76	1578.98
386.97	1679.33
387.18	1619.94
387.39	1558.50
387.59	1621.99
387.80	1607.66
388.01	1619.94
388.22	1595.37
388.43	1638.38
388.64	1628.14
388.85	1554.41
389.05	1638.38
389.26	1619.94
389.47	1642.47
389.68	1628.14
389.89	1570.79
390.10	1527.78
390.31	1597.42
390.51	1628.14
390.72	1646.57
390.93	1587.18
391.14	1624.04
391.35	1550.31
391.56	1548.26
391.76	1652.71
391.97	1566.70
392.18	1636.33
392.39	1578.98
392.60	1687.53
392.81	1593.32
393.01	1574.89
393.22	1566.70
393.43	1570.79
393.64	1566.70
393.85	1677.29
394.06	1656.81
394.26	1628.14
394.47	1560.55
394.68	1513.45
394.89	1595.37
395.10	1570.79
395.31	1597.42
395.51	1595.37
395.72	1599.46
395.93	1599.46
396.14	1593.32
396.35	1662.95
396.55	1576.94
396.76	1593.32
396.97	1578.98
397.18	1587.18
397.39	1542.12
397.60	1578.98
397.80	1642.47
398.01	1624.04
398.22	1656.81
398.43	1648.61
398.64	1519.59
398.84	1529.83
399.05	1593.32
399.26	1617.90
399.47	1531.88
399.68	1589.22
399.88	1626.09
400.09	1634.28
400.30	1607.66
400.51	1642.47
400.72	1595.37
400.92	1634.28
401.13	1605.61
401.34	1621.99
401.55	1609.70
401.76	1607.66
401.96	1693.67
402.17	1722.34
402.38	1624.04
402.59	1628.14
402.80	1955.81
403.00	1701.86
403.21	1644.52
403.42	1513.45
403.63	1595.37
403.84	1619.94
404.04	1599.46
404.25	1566.70
404.46	1574.89
404.67	1609.70
404.88	1648.61
405.08	1673.19
405.29	1646.57
405.50	1626.09
405.71	1509.35
405.91	1611.75
406.12	1601.51
406.33	1578.98
406.54	1564.65
406.75	1550.31
406.95	1617.90
407.16	1595.37
407.37	1589.22
407.58	1574.89
407.78	1968.10
407.99	1621.99
408.20	1599.46
408.41	1630.18
408.62	1632.23
408.82	1576.94
409.03	1576.94
409.24	1619.94
409.45	1519.59
409.65	1585.13
409.86	1591.27
410.07	1581.03
410.28	1609.70
410.48	1562.60
410.69	1636.33
410.90	1611.75
411.11	1570.79
411.31	1593.32
411.52	1515.50
411.73	1624.04
411.94	1632.23
412.14	1583.08
412.35	1654.76
412.56	1648.61
412.77	1542.12
412.98	1570.79
413.18	1597.42
413.39	1587.18
413.60	1605.61
413.81	1585.13
414.01	1675.24
414.22	1578.98
414.43	1562.60
414.64	1581.03
414.84	1572.84
415.05	1593.32
415.26	1529.83
415.46	1591.27
415.67	1615.85
415.88	1527.78
416.09	1492.97
416.29	1560.55
416.50	1615.85
416.71	1611.75
416.92	1640.42
417.12	1474.54
417.33	1576.94
417.54	1636.33
417.75	1576.94
417.95	1603.56
418.16	1669.09
418.37	1566.70
418.58	1566.70
418.78	1527.78
418.99	1613.80
419.20	1624.04
419.40	1636.33
419.61	1619.94
419.82	1587.18
420.03	1558.50
420.23	1587.18
420.44	1619.94
420.65	1574.89
420.85	1605.61
421.06	1574.89
421.27	1583.08
421.48	1613.80
421.68	1667.05
421.89	1517.54
422.10	1562.60
422.30	1609.70
422.51	1574.89
422.72	1574.89
422.93	1581.03
423.13	1570.79
423.34	1660.90
423.55	1578.98
423.75	1613.80
423.96	1578.98
424.17	1652.71
424.38	1609.70
424.58	1638.38
424.79	1566.70
425.00	1574.89
425.20	1630.18
425.41	1716.20
425.62	1640.42
425.83	1542.12
426.03	1583.08
426.24	1603.56
426.45	1589.22
426.65	1538.02
426.86	1572.84
427.07	1558.50
427.27	1708.01
427.48	1611.75
427.69	1578.98
427.89	1609.70
428.10	1630.18
428.31	1603.56
428.52	1603.56
428.72	1642.47
428.93	1669.09
429.14	1626.09
429.34	1603.56
429.55	1619.94
429.76	1650.66
429.96	1546.22
430.17	1597.42
430.38	1665.00
430.58	1538.02
430.79	1603.56
431.00	1556.46
431.20	1638.38
431.41	1605.61
431.62	1669.09
431.82	1656.81
432.03	1574.89
432.24	1624.04
432.44	1615.85
432.65	1595.37
432.86	1593.32
433.06	1521.64
433.27	1624.04
433.48	1662.95
433.68	1581.03
433.89	1548.26
434.10	1679.33
434.30	1617.90
434.51	1621.99
434.72	1587.18
434.92	1578.98
435.13	1576.94
435.34	1578.98
435.54	1630.18
435.75	1574.89
435.96	1499.11
436.16	1603.56
436.37	1509.35
436.58	1488.87
436.78	1630.18
436.99	1652.71
437.20	1642.47
437.40	1632.23
437.61	1701.86
437.82	1613.80
438.02	1636.33
438.23	1632.23
438.43	1660.90
438.64	1646.57
438.85	1636.33
439.05	1621.99
439.26	1611.75
439.47	1744.87
439.67	1578.98
439.88	1644.52
440.09	1564.65
440.29	1640.42
440.50	1634.28
440.71	1609.70
440.91	1603.56
441.12	1519.59
441.32	1558.50
441.53	1572.84
441.74	1628.14
441.94	1562.60
442.15	1572.84
442.36	1603.56
442.56	1652.71
442.77	1570.79
442.97	1632.23
443.18	1728.49
443.39	1613.80
443.59	1525.74
443.80	1621.99
444.01	1708.01
444.21	1699.81
444.42	1636.33
444.62	1525.74
444.83	1552.36
445.04	1581.03
445.24	1578.98
445.45	1640.42
445.66	1591.27
445.86	1644.52
446.07	1554.41
446.27	1533.93
446.48	1558.50
446.69	1523.69
446.89	1621.99
447.10	1562.60
447.30	1583.08
447.51	1599.46
447.72	1638.38
447.92	1697.77
448.13	1578.98
448.33	1644.52
448.54	1646.57
448.75	1605.61
448.95	1697.77
449.16	1568.74
449.36	1636.33
449.57	1652.71
449.78	1714.15
449.98	1617.90
450.19	1605.61
450.39	1570.79
450.60	1665.00
450.81	1626.09
451.01	1603.56
451.22	1578.98
451.42	1558.50
451.63	1548.26
451.84	1570.79
452.04	1578.98
452.25	1595.37
452.45	1636.33
452.66	1542.12
452.86	1609.70
453.07	1644.52
453.28	1513.45
453.48	1644.52
453.69	1564.65
453.89	1607.66
454.10	1644.52
454.30	1628.14
454.51	1613.80
454.72	1603.56
454.92	1607.66
455.13	1611.75
455.33	1538.02
455.54	1636.33
455.74	1642.47
455.95	1538.02
456.16	1583.08
456.36	1576.94
456.57	1568.74
456.77	1652.71
456.98	1646.57
457.18	1642.47
457.39	1607.66
457.60	1595.37
457.80	1650.66
458.01	1574.89
458.21	1636.33
458.42	1597.42
458.62	1560.55
458.83	1613.80
459.03	1560.55
459.24	1665.00
459.45	1650.66
459.65	1552.36
459.86	1673.19
460.06	1599.46
460.27	1581.03
460.47	1480.68
460.68	1636.33
460.88	1677.29
461.09	1558.50
461.30	1632.23
461.50	1583.08
461.71	1642.47
461.91	1495.02
462.12	1691.62
462.32	1574.89
462.53	1574.89
462.73	1531.88
462.94	1597.42
463.14	1611.75
463.35	1636.33
463.55	1621.99
463.76	1611.75
463.96	1599.46
464.17	1638.38
464.38	1646.57
464.58	1660.90
464.79	1556.46
464.99	1648.61
465.20	1589.22
465.40	1595.37
465.61	1554.41
465.81	1652.71
466.02	1605.61
466.22	1632.23
466.43	1566.70
466.63	1583.08
466.84	1650.66
467.04	1619.94
467.25	1560.55
467.45	1552.36
467.66	1621.99
467.86	1601.51
468.07	1607.66
468.27	1681.38
468.48	1599.46
468.68	1669.09
468.89	1585.13
469.09	1572.84
469.30	1576.94
469.51	1648.61
469.71	1613.80
469.92	1601.51
470.12	1595.37
470.33	1642.47
470.53	1581.03
470.74	1626.09
470.94	1544.17
471.15	1542.12
471.35	1978.34
471.56	1607.66
471.76	1652.71
471.97	1589.22
472.17	1523.69
472.38	1705.96
472.58	1632.23
472.78	1609.70
472.99	1607.66
473.19	1642.47
473.40	1619.94
473.60	1624.04
473.81	1523.69
474.01	1556.46
474.22	1628.14
474.42	1619.94
474.63	1654.76
474.83	1560.55
475.04	1621.99
475.24	1636.33
475.45	1648.61
475.65	1564.65
475.86	1558.50
476.06	1515.50
476.27	1626.09
476.47	1566.70
476.68	1617.90
476.88	1615.85
477.09	1644.52
477.29	1574.89
477.50	1552.36
477.70	1626.09
477.90	1562.60
478.11	1556.46
478.31	1628.14
478.52	1607.66
478.72	1611.75
478.93	1535.98
479.13	1642.47
479.34	1611.75
479.54	1497.07
479.75	1603.56
479.95	1507.30
480.16	1585.13
480.36	1603.56
480.56	1597.42
480.77	1685.48
480.97	1660.90
481.18	1589.22
481.38	1669.09
481.59	1548.26
481.79	1525.74
482.00	1714.15
482.20	1634.28
482.41	1828.84
482.61	1626.09
482.81	1605.61
483.02	1605.61
483.22	1597.42
483.43	1566.70
483.63	1656.81
483.84	1470.44
484.04	1581.03
484.24	1630.18
484.45	1626.09
484.65	1619.94
484.86	1566.70
485.06	1619.94
485.27	1660.90
485.47	1583.08
485.68	1673.19
485.88	1533.93
486.08	1609.70
486.29	1601.51
486.49	1648.61
486.70	1587.18
486.90	1642.47
487.11	1621.99
487.31	1583.08
487.51	1644.52
487.72	1632.23
487.92	1599.46
488.13	1697.77
488.33	1562.60
488.53	1603.56
488.74	1665.00
488.94	1499.11
489.15	1624.04
489.35	1609.70
489.56	1578.98
489.76	1654.76
489.96	1581.03
490.17	1560.55
490.37	1689.57
490.58	1644.52
490.78	1611.75
490.98	1511.40
491.19	1581.03
491.39	1609.70
491.60	1626.09
491.80	1566.70
492.00	1542.12
492.21	1718.25
492.41	1677.29
492.62	1568.74
492.82	1578.98
493.02	1673.19
493.23	1683.43
493.43	1611.75
493.64	1523.69
493.84	1628.14
494.04	1630.18
494.25	1562.60
494.45	1587.18
494.66	1744.87
494.86	1644.52
495.06	1662.95
495.27	1652.71
495.47	1665.00
495.67	1693.67
495.88	1644.52
496.08	1605.61
496.29	1654.76
496.49	1609.70
496.69	1630.18
496.90	1533.93
497.10	1648.61
497.30	1544.17
497.51	1589.22
497.71	1621.99
497.92	1677.29
498.12	1599.46
498.32	1597.42
498.53	1607.66
498.73	1640.42
498.93	1640.42
499.14	1636.33
499.34	1699.81
499.55	1624.04
499.75	1570.79
499.95	1548.26
500.16	1660.90
500.36	1621.99
500.56	1495.02
500.77	1576.94
500.97	1581.03
501.17	1597.42
501.38	1619.94
501.58	1591.27
501.79	1662.95
501.99	1572.84
502.19	1609.70
502.40	1597.42
502.60	1640.42
502.80	1621.99
503.01	1564.65
503.21	1603.56
503.41	1593.32
503.62	1693.67
503.82	1581.03
504.02	1619.94
504.23	1474.54
504.43	1578.98
504.63	1644.52
504.84	1601.51
505.04	1603.56
505.24	1591.27
505.45	1591.27
505.65	1662.95
505.85	1599.46
506.06	1669.09
506.26	1591.27
506.46	1593.32
506.67	1595.37
506.87	1574.89
507.07	1564.65
507.28	1624.04
507.48	1583.08
507.68	1644.52
507.89	1564.65
508.09	1634.28
508.29	1529.83
508.50	1599.46
508.70	1681.38
508.90	1648.61
509.11	1638.38
509.31	1546.22
509.51	1595.37
509.72	1624.04
509.92	1544.17
510.12	1531.88
510.32	1521.64
510.53	1646.57
510.73	1529.83
510.93	1576.94
511.14	1607.66
511.34	1597.42
511.54	1617.90
511.75	1581.03
511.95	1603.56
512.15	1568.74
512.36	1712.10
512.56	1621.99
512.76	1531.88
512.96	1628.14
513.17	1722.34
513.37	1638.38
513.57	1675.24
513.78	1607.66
513.98	1568.74
514.18	1603.56
514.38	1576.94
514.59	1597.42
514.79	1605.61
514.99	1538.02
515.20	1562.60
515.40	1595.37
515.60	1619.94
515.80	1626.09
516.01	1673.19
516.21	1597.42
516.41	1611.75
516.62	1562.60
516.82	1636.33
517.02	1578.98
517.22	1662.95
517.43	1654.76
517.63	1613.80
517.83	1556.46
518.04	1562.60
518.24	1685.48
518.44	1583.08
518.64	1605.61
518.85	1538.02
519.05	1656.81
519.25	1587.18
519.45	1621.99
519.66	1611.75
519.86	1611.75
520.06	1560.55
520.26	1628.14
520.47	1615.85
520.67	1597.42
520.87	1599.46
521.08	1550.31
521.28	1566.70
521.48	1665.00
521.68	1601.51
521.89	1626.09
522.09	1695.72
522.29	1556.46
522.49	1597.42
522.70	1681.38
522.90	1624.04
523.10	1669.09
523.30	1603.56
523.51	1595.37
523.71	1611.75
523.91	1554.41
524.11	1603.56
524.31	1644.52
524.52	1613.80
524.72	1585.13
524.92	1644.52
525.12	1624.04
525.33	1611.75
525.53	1697.77
525.73	1603.56
525.93	1544.17
526.14	1519.59
526.34	1613.80
526.54	1568.74
526.74	1587.18
526.95	1712.10
527.15	1628.14
527.35	1583.08
527.55	1585.13
527.75	1548.26
527.96	1564.65
528.16	1540.07
528.36	1566.70
528.56	1589.22
528.77	1589.22
528.97	1611.75
529.17	1591.27
529.37	1509.35
529.57	1587.18
529.78	1624.04
529.98	1583.08
530.18	1630.18
530.38	1615.85
530.58	1583.08
530.79	1568.74
530.99	1554.41
531.19	1650.66
531.39	1603.56
531.59	1652.71
531.80	1681.38
532.00	1615.85
532.20	1619.94
532.40	1523.69
532.60	1628.14
532.81	1515.50
533.01	1583.08
533.21	1501.16
533.41	1574.89
533.61	1578.98
533.82	1683.43
534.02	1578.98
534.22	1619.94
534.42	1587.18
534.62	1611.75
534.83	1621.99
535.03	1578.98
535.23	1540.07
535.43	1593.32
535.63	1607.66
535.83	1632.23
536.04	1658.85
536.24	1597.42
536.44	1609.70
536.64	1644.52
536.84	1669.09
537.05	1597.42
537.25	1669.09
537.45	1617.90
537.65	1599.46
537.85	1548.26
538.05	1568.74
538.26	1677.29
538.46	1599.46
538.66	1595.37
538.86	1576.94
539.06	1628.14
539.26	1603.56
539.47	1548.26
539.67	1560.55
539.87	1583.08
540.07	1640.42
540.27	1738.73
540.47	1681.38
540.68	1568.74
540.88	1652.71
541.08	1710.05
541.28	1578.98
541.48	1554.41
541.68	1619.94
541.88	1691.62
542.09	1648.61
542.29	1529.83
542.49	1640.42
542.69	1753.06
542.89	1640.42
543.09	1673.19
543.29	1540.07
543.50	1697.77
543.70	1527.78
543.90	1546.22
544.10	1621.99
544.30	1611.75
544.50	1552.36
544.70	1562.60
544.91	1613.80
545.11	1640.42
545.31	1597.42
545.51	1636.33
545.71	1562.60
545.91	1736.68
546.11	1607.66
546.31	1601.51
546.52	1673.19
546.72	1675.24
546.92	1640.42
547.12	1636.33
547.32	1605.61
547.52	1628.14
547.72	1597.42
547.92	1665.00
548.13	1652.71
548.33	1681.38
548.53	1591.27
548.73	1636.33
548.93	1632.23
549.13	1652.71
549.33	1562.60
549.53	1644.52
549.73	1523.69
549.94	1685.48
550.14	1605.61
550.34	1587.18
550.54	1658.85
550.74	1683.43
550.94	1628.14
551.14	1665.00
551.34	1603.56
551.54	1642.47
551.74	1609.70
551.95	1554.41
552.15	1609.70
552.35	1615.85
552.55	1640.42
552.75	1658.85
552.95	1564.65
553.15	1548.26
553.35	1535.98
553.55	1701.86
553.75	1538.02
553.95	1644.52
554.16	1525.74
554.36	1638.38
554.56	1613.80
554.76	1581.03
554.96	1660.90
555.16	1581.03
555.36	1660.90
555.56	1662.95
555.76	1525.74
555.96	1626.09
556.16	1564.65
556.36	1630.18
556.57	1626.09
556.77	1619.94
556.97	1591.27
557.17	1624.04
557.37	1581.03
557.57	1701.86
557.77	1546.22
557.97	1570.79
558.17	1626.09
558.37	1560.55
558.57	1677.29
558.77	1531.88
558.97	1583.08
559.17	1591.27
559.37	1597.42
559.57	1591.27
559.78	1603.56
559.98	1544.17
560.18	1566.70
560.38	1583.08
560.58	1679.33
560.78	1611.75
560.98	1628.14
561.18	1646.57
561.38	1566.70
561.58	1648.61
561.78	1576.94
561.98	1593.32
562.18	1595.37
562.38	1611.75
562.58	1591.27
562.78	1619.94
562.98	1712.10
563.18	1599.46
563.38	1554.41
563.58	1619.94
563.78	1587.18
563.98	1605.61
564.18	1607.66
564.38	1566.70
564.58	1560.55
564.79	1587.18
564.99	1611.75
565.19	1665.00
565.39	1550.31
565.59	1652.71
565.79	1538.02
565.99	1656.81
566.19	1583.08
566.39	1609.70
566.59	1632.23
566.79	1630.18
566.99	1638.38
567.19	1646.57
567.39	1531.88
567.59	1570.79
567.79	1578.98
567.99	1554.41
568.19	1671.14
568.39	1587.18
568.59	1619.94
568.79	1638.38
568.99	1658.85
569.19	1615.85
569.39	1562.60
569.59	1523.69
569.79	1613.80
569.99	1652.71
570.19	1562.60
570.39	1619.94
570.59	1708.01
570.79	1642.47
570.99	1572.84
571.19	1544.17
571.39	1607.66
571.59	1624.04
571.79	1638.38
571.99	1656.81
572.19	1613.80
572.39	1578.98
572.59	1572.84
572.79	1554.41
572.99	1595.37
573.19	1595.37
573.39	1599.46
573.59	1638.38
573.79	1560.55
573.99	1558.50
574.19	1605.61
574.38	1568.74
574.58	1652.71
574.78	1619.94
574.98	1685.48
575.18	1566.70
575.38	1613.80
575.58	1587.18
575.78	1621.99
575.98	1535.98
576.18	1538.02
576.38	1619.94
576.58	1593.32
576.78	1583.08
576.98	1564.65
577.18	1558.50
577.38	1546.22
577.58	1560.55
577.78	1507.30
577.98	1605.61
578.18	1621.99
578.38	1638.38
578.58	1636.33
578.78	1601.51
578.98	1589.22
579.18	1535.98
579.37	1650.66
579.57	1619.94
579.77	1605.61
579.97	1626.09
580.17	1615.85
580.37	1615.85
580.57	1603.56
580.77	1568.74
580.97	1964.00
581.17	1644.52
581.37	1562.60
581.57	1599.46
581.77	1585.13
581.97	1570.79
582.17	1529.83
582.37	1628.14
582.56	1617.90
582.76	1533.93
582.96	1597.42
583.16	1644.52
583.36	1585.13
583.56	1644.52
583.76	1615.85
583.96	1546.22
584.16	1644.52
584.36	1597.42
584.56	1523.69
584.76	1671.14
584.95	1636.33
585.15	1597.42
585.35	1605.61
585.55	1587.18
585.75	1630.18
585.95	1624.04
586.15	1613.80
586.35	1601.51
586.55	1652.71
586.75	1589.22
586.95	1527.78
587.14	1540.07
587.34	1538.02
587.54	1578.98
587.74	1648.61
587.94	1533.93
588.14	1603.56
588.34	1644.52
588.54	1628.14
588.74	1546.22
588.94	1650.66
589.13	1564.65
589.33	1578.98
589.53	1636.33
589.73	1550.31
589.93	1615.85
590.13	1556.46
590.33	1538.02
590.53	1482.73
590.72	1628.14
590.92	1609.70
591.12	1550.31
591.32	1529.83
591.52	1634.28
591.72	1558.50
591.92	1603.56
592.12	1609.70
592.32	1554.41
592.51	1595.37
592.71	1652.71
592.91	1583.08
593.11	1583.08
593.31	1509.35
593.51	1484.78
593.71	1722.34
593.90	1603.56
594.10	1513.45
594.30	1556.46
594.50	1667.05
594.70	1546.22
594.90	1554.41
595.10	1605.61
595.29	1587.18
595.49	1591.27
595.69	1550.31
595.89	1587.18
596.09	1492.97
596.29	1601.51
596.49	1523.69
596.68	1544.17
596.88	1632.23
597.08	1613.80
597.28	1509.35
597.48	1619.94
597.68	1509.35
597.87	1568.74
598.07	1589.22
598.27	1615.85
598.47	1583.08
598.67	1605.61
598.87	1611.75
599.06	1660.90
599.26	1566.70
599.46	1695.72
599.66	1621.99
599.86	1525.74
600.06	1632.23
600.25	1595.37
600.45	1640.42
600.65	1632.23
600.85	1611.75
601.05	1634.28
601.25	1648.61
601.44	1673.19
601.64	1521.64
601.84	1630.18
602.04	1564.65
602.24	1621.99
602.43	1517.54
602.63	1624.04
602.83	1581.03
603.03	1593.32
603.23	1662.95
603.42	1671.14
603.62	1574.89
603.82	1599.46
604.02	1595.37
604.22	1529.83
604.42	1511.40
604.61	1605.61
604.81	1632.23
605.01	1619.94
605.21	1947.62
605.40	1570.79
605.60	1632.23
605.80	1597.42
606.00	1617.90
606.20	1566.70
606.39	1576.94
606.59	1617.90
606.79	1540.07
606.99	1542.12
607.19	1630.18
607.38	1634.28
607.58	1578.98
607.78	1611.75
607.98	1523.69
608.18	1611.75
608.37	1652.71
608.57	1513.45
608.77	1652.71
608.97	1632.23
609.16	1533.93
609.36	1636.33
609.56	1640.42
609.76	1665.00
609.95	1527.78
610.15	1728.49
610.35	1636.33
610.55	1660.90
610.75	1589.22
610.94	1615.85
611.14	1665.00
611.34	1689.57
611.54	1578.98
611.73	1654.76
611.93	1550.31
612.13	1542.12
612.33	1581.03
612.52	1583.08
612.72	1593.32
612.92	1540.07
613.12	1646.57
613.31	1599.46
613.51	1689.57
613.71	1624.04
613.91	1587.18
614.10	1619.94
614.30	1603.56
614.50	1656.81
614.70	1644.52
614.89	1540.07
615.09	1595.37
615.29	1628.14
615.49	1648.61
615.68	1634.28
615.88	1640.42
616.08	1671.14
616.27	1628.14
616.47	1628.14
616.67	1607.66
616.87	1587.18
617.06	1564.65
617.26	1564.65
617.46	1626.09
617.66	1490.92
617.85	1652.71
618.05	1681.38
618.25	1685.48
618.44	1628.14
618.64	1568.74
618.84	1593.32
619.04	1687.53
619.23	1687.53
619.43	1570.79
619.63	1595.37
619.82	1630.18
620.02	1556.46
620.22	1558.50
620.42	1564.65
620.61	1554.41
620.81	1636.33
621.01	1679.33
621.20	1628.14
621.40	1572.84
621.60	1603.56
621.79	1644.52
621.99	1583.08
622.19	1667.05
622.39	1615.85
622.58	1763.30
622.78	1611.75
622.98	1677.29
623.17	1691.62
623.37	2000.87
623.57	1613.80
623.76	1601.51
623.96	1597.42
624.16	1572.84
624.35	1589.22
624.55	1581.03
624.75	1738.73
624.94	1511.40
625.14	1587.18
625.34	1724.39
625.53	1589.22
625.73	1531.88
625.93	1513.45
626.12	1654.76
626.32	1621.99
626.52	1677.29
626.71	1583.08
626.91	1607.66
627.11	1591.27
627.30	1548.26
627.50	1544.17
627.70	1634.28
627.89	1488.87
628.09	1546.22
628.29	1621.99
628.48	1638.38
628.68	1587.18
628.88	1607.66
629.07	1552.36
629.27	1558.50
629.47	1662.95
629.66	1607.66
629.86	1578.98
630.06	1646.57
630.25	1568.74
630.45	1640.42
630.65	1589.22
630.84	1628.14
631.04	1626.09
631.24	1615.85
631.43	1619.94
631.63	1630.18
631.82	1656.81
632.02	1609.70
632.22	1574.89
632.41	1581.03
632.61	1599.46
632.81	1638.38
633.00	1578.98
633.20	1650.66
633.39	1689.57
633.59	1570.79
633.79	1482.73
633.98	1525.74
634.18	1517.54
634.38	1619.94
634.57	1587.18
634.77	1648.61
634.96	1503.21
635.16	1615.85
635.36	1630.18
635.55	1611.75
635.75	1691.62
635.95	1581.03
636.14	1677.29
636.34	1660.90
636.53	1626.09
636.73	1603.56
636.93	1568.74
637.12	1636.33
637.32	1599.46
637.51	1642.47
637.71	1572.84
637.91	1548.26
638.10	1572.84
638.30	1613.80
638.49	1628.14
638.69	1630.18
638.89	1548.26
639.08	1542.12
639.28	1558.50
639.47	1607.66
639.67	1630.18
639.86	1527.78
640.06	1609.70
640.26	1587.18
640.45	1632.23
640.65	1587.18
640.84	1576.94
641.04	1626.09
641.24	1583.08
641.43	1615.85
641.63	1607.66
641.82	1607.66
642.02	1490.92
642.21	1662.95
642.41	1576.94
642.61	1527.78
642.80	1611.75
643.00	1601.51
643.19	1728.49
643.39	1607.66
643.58	1628.14
643.78	1529.83
643.97	1548.26
644.17	1742.82
644.37	1570.79
644.56	1542.12
644.76	1660.90
644.95	1669.09
645.15	1658.85
645.34	1587.18
645.54	1583.08
645.73	1564.65
645.93	1646.57
646.13	1591.27
646.32	1529.83
646.52	1605.61
646.71	1589.22
646.91	1619.94
647.10	1583.08
647.30	1544.17
647.49	1566.70
647.69	1603.56
647.88	1591.27
648.08	1621.99
648.28	1599.46
648.47	1605.61
648.67	1497.07
648.86	1611.75
649.06	1681.38
649.25	1603.56
649.45	1607.66
649.64	1519.59
649.84	1650.66
650.03	1556.46
650.23	1511.40
650.42	1519.59
650.62	1656.81
650.81	1556.46
651.01	1703.91
651.20	1630.18
651.40	1605.61
651.59	1527.78
651.79	1603.56
651.98	1613.80
652.18	1634.28
652.37	1638.38
652.57	1587.18
652.76	1732.58
652.96	1521.64
653.15	1646.57
653.35	1566.70
653.54	1566.70
653.74	1554.41
653.93	1587.18
654.13	1619.94
654.32	1470.44
654.52	1548.26
654.71	1669.09
654.91	1564.65
655.10	1624.04
655.30	1607.66
655.49	1585.13
655.69	1615.85
655.88	1587.18
656.08	1544.17
656.27	1624.04
656.47	1642.47
656.66	1564.65
656.86	1595.37
657.05	1587.18
657.25	1529.83
657.44	1558.50
657.64	1581.03
657.83	1642.47
658.03	1607.66
658.22	1660.90
658.42	1691.62
658.61	1630.18
658.80	1628.14
659.00	1548.26
659.19	1613.80
659.39	1556.46
659.58	1624.04
659.78	1574.89
659.97	1595.37
660.17	1662.95
660.36	1538.02
660.56	1572.84
660.75	1572.84
660.95	1558.50
661.14	1556.46
661.33	1566.70
661.53	1599.46
661.72	1581.03
661.92	1593.32
662.11	1558.50
662.31	1560.55
662.50	1648.61
662.70	1632.23
662.89	1603.56
663.08	1523.69
663.28	1636.33
663.47	1581.03
663.67	1578.98
663.86	1611.75
664.06	1613.80
664.25	1595.37
664.44	1595.37
664.64	1560.55
664.83	1615.85
665.03	1638.38
665.22	1591.27
665.42	1640.42
665.61	1564.65
665.80	1576.94
666.00	1560.55
666.19	1570.79
666.39	1599.46
666.58	1599.46
666.77	1576.94
666.97	1517.54
667.16	1576.94
667.36	1585.13
667.55	1533.93
667.75	1562.60
667.94	1597.42
668.13	1644.52
668.33	1710.05
668.52	1566.70
668.72	1529.83
668.91	1628.14
669.10	1572.84
669.30	1595.37
669.49	1595.37
669.69	1632.23
669.88	1665.00
670.07	1630.18
670.27	1599.46
670.46	1611.75
670.66	1558.50
670.85	1576.94
671.04	1589.22
671.24	1591.27
671.43	1697.77
671.62	1628.14
671.82	1581.03
672.01	1626.09
672.21	1578.98
672.40	1689.57
672.59	1628.14
672.79	1611.75
672.98	1630.18
673.17	1552.36
673.37	1593.32
673.56	1613.80
673.76	1576.94
673.95	1636.33
674.14	1667.05
674.34	1554.41
674.53	1593.32
674.72	1658.85
674.92	1570.79
675.11	1615.85
675.30	1640.42
675.50	1593.32
675.69	1544.17
675.89	1578.98
676.08	1650.66
676.27	1673.19
676.47	1538.02
676.66	1615.85
676.85	1597.42
677.05	1636.33
677.24	1619.94
677.43	1648.61
677.63	1597.42
677.82	1595.37
678.01	1566.70
678.21	1568.74
678.40	1628.14
678.59	1607.66
678.79	1505.26
678.98	1554.41
679.17	1564.65
679.37	1523.69
679.56	1619.94
679.75	1558.50
679.95	1628.14
680.14	1656.81
680.33	1509.35
680.53	1603.56
680.72	1515.50
680.91	1662.95
681.11	1624.04
681.30	1589.22
681.49	1613.80
681.69	1640.42
681.88	1677.29
682.07	1603.56
682.26	1632.23
682.46	1630.18
682.65	1587.18
682.84	1599.46
683.04	1601.51
683.23	1734.63
683.42	1507.30
683.62	1581.03
683.81	1538.02
684.00	1677.29
684.20	1613.80
684.39	1578.98
684.58	1546.22
684.77	1595.37
684.97	1560.55
685.16	1585.13
685.35	1613.80
685.55	1630.18
685.74	1550.31
685.93	1677.29
686.12	1660.90
686.32	1554.41
686.51	1597.42
686.70	1654.76
686.90	1640.42
687.09	1587.18
687.28	1642.47
687.47	1611.75
687.67	1603.56
687.86	1615.85
688.05	1615.85
688.25	1562.60
688.44	1607.66
688.63	1671.14
688.82	1550.31
689.02	1687.53
689.21	1662.95
689.40	1576.94
689.59	1593.32
689.79	1558.50
689.98	1708.01
690.17	1646.57
690.36	1562.60
690.56	1576.94
690.75	1732.58
690.94	1671.14
691.13	1585.13
691.33	1597.42
691.52	1542.12
691.71	1521.64
691.90	1605.61
692.10	1503.21
692.29	1578.98
692.48	1701.86
692.67	1517.54
692.87	1542.12
693.06	1603.56
693.25	1605.61
693.44	1546.22
693.64	1562.60
693.83	1630.18
694.02	1576.94
694.21	1550.31
694.40	1611.75
694.60	1613.80
694.79	1544.17
694.98	1570.79
695.17	1558.50
695.37	1583.08
695.56	1529.83
695.75	1583.08
695.94	1628.14
696.13	1562.60
696.33	1538.02
696.52	1654.76
696.71	1599.46
696.90	1515.50
697.10	1554.41
697.29	1667.05
697.48	1591.27
697.67	1615.85
697.86	1640.42
698.06	1546.22
698.25	1648.61
698.44	1591.27
698.63	1572.84
698.82	1632.23
699.02	1599.46
699.21	1658.85
699.40	1589.22
699.59	1595.37
699.78	1613.80
699.98	1679.33
700.17	1613.80
700.36	1583.08
700.55	1574.89
700.74	1712.10
700.93	1593.32
701.13	1570.79
701.32	1572.84
701.51	1669.09
701.70	1665.00
701.89	1562.60
702.09	1683.43
702.28	1574.89
702.47	1572.84
702.66	1581.03
702.85	1619.94
703.04	1505.26
703.24	1566.70
703.43	1599.46
703.62	1636.33
703.81	1505.26
704.00	1679.33
704.19	1576.94
704.39	1609.70
704.58	1581.03
704.77	1603.56
704.96	1648.61
705.15	1552.36
705.34	1652.71
705.54	1611.75
705.73	1585.13
705.92	1603.56
706.11	1566.70
706.30	1720.29
706.49	1589.22
706.68	1595.37
706.88	1654.76
707.07	1554.41
707.26	1601.51
707.45	1603.56
707.64	1556.46
707.83	1550.31
708.02	1568.74
708.22	1638.38
708.41	1566.70
708.60	1595.37
708.79	1599.46
708.98	1685.48
709.17	1636.33
709.36	1568.74
709.55	1646.57
709.75	1591.27
709.94	1488.87
710.13	1589.22
710.32	1597.42
710.51	1669.09
710.70	1603.56
710.89	1572.84
711.08	1531.88
711.27	1619.94
711.47	1628.14
711.66	1527.78
711.85	1658.85
712.04	1595.37
712.23	1574.89
712.42	1578.98
712.61	1583.08
712.80	1581.03
712.99	1619.94
713.19	1538.02
713.38	1576.94
713.57	1556.46
713.76	1605.61
713.95	1583.08
714.14	1593.32
714.33	1560.55
714.52	1665.00
714.71	1603.56
714.90	1632.23
715.09	1562.60
715.28	1603.56
715.48	1591.27
715.67	1574.89
715.86	1613.80
716.05	1505.26
716.24	1644.52
716.43	1497.07
716.62	1593.32
716.81	1615.85
717.00	1703.91
717.19	1636.33
717.38	1587.18
717.57	1562.60
717.76	1654.76
717.96	1519.59
718.15	1599.46
718.34	1566.70
718.53	1632.23
718.72	1607.66
718.91	1581.03
719.10	1650.66
719.29	1554.41
719.48	1554.41
719.67	1644.52
719.86	1656.81
720.05	1619.94
720.24	1617.90
720.43	1654.76
720.62	1640.42
720.81	1669.09
721.00	1562.60
721.19	1642.47
721.38	1595.37
721.57	1570.79
721.77	1658.85
721.96	1554.41
722.15	1568.74
722.34	1572.84
722.53	1599.46
722.72	1533.93
722.91	1611.75
723.10	1611.75
723.29	1583.08
723.48	1589.22
723.67	1671.14
723.86	1671.14
724.05	1552.36
724.24	1628.14
724.43	1566.70
724.62	1583.08
724.81	1599.46
725.00	1628.14
725.19	1554.41
725.38	1654.76
725.57	1640.42
725.76	1699.81
725.95	1497.07
726.14	1601.51
726.33	1628.14
726.52	1587.18
726.71	1595.37
726.90	1595.37
727.09	1570.79
727.28	1556.46
727.47	1628.14
727.66	1652.71
727.85	1578.98
728.04	1656.81
728.23	1597.42
728.42	1624.04
728.61	1591.27
728.80	1628.14
728.99	1525.74
729.18	1562.60
729.37	1611.75
729.56	1636.33
729.75	1619.94
729.94	1642.47
730.13	1540.07
730.32	1619.94
730.51	1607.66
730.70	1650.66
730.89	1591.27
731.08	1585.13
731.27	1540.07
731.46	1669.09
731.65	1701.86
731.84	1650.66
732.03	1458.15
732.21	1538.02
732.40	1583.08
732.59	1640.42
732.78	1607.66
732.97	1665.00
733.16	1669.09
733.35	1538.02
733.54	1595.37
733.73	1621.99
733.92	1521.64
734.11	1566.70
734.30	1564.65
734.49	1562.60
734.68	1677.29
734.87	1583.08
735.06	1613.80
735.25	1581.03
735.44	1646.57
735.63	1595.37
735.81	1738.73
736.00	1669.09
736.19	1570.79
736.38	1675.24
736.57	1632.23
736.76	1665.00
736.95	1570.79
737.14	1540.07
737.33	1505.26
737.52	1570.79
737.71	1535.98
737.90	1607.66
738.09	1576.94
738.28	1626.09
738.46	1542.12
738.65	1560.55
738.84	1607.66
739.03	1613.80
739.22	1550.31
739.41	1759.21
739.60	1624.04
739.79	1523.69
739.98	1533.93
740.17	1595.37
740.36	1624.04
740.54	1585.13
740.73	1523.69
740.92	1660.90
741.11	1599.46
741.30	1570.79
741.49	1542.12
741.68	1679.33
741.87	1636.33
742.06	1581.03
742.24	1587.18
742.43	1546.22
742.62	1564.65
742.81	1677.29
743.00	1693.67
743.19	1581.03
743.38	1497.07
743.57	1705.96
743.76	1546.22
743.94	1656.81
744.13	1591.27
744.32	1611.75
744.51	1564.65
744.70	1529.83
744.89	1564.65
745.08	1665.00
745.26	1595.37
745.45	1660.90
745.64	1638.38
745.83	1599.46
746.02	1621.99
746.21	1552.36
746.40	1568.74
746.58	1583.08
746.77	1546.22
746.96	1578.98
747.15	1640.42
747.34	1697.77
747.53	1572.84
747.72	1615.85
747.90	1607.66
748.09	1646.57
748.28	1542.12
748.47	1540.07
748.66	1554.41
748.85	1583.08
749.03	1595.37
749.22	1630.18
749.41	1591.27
749.60	1587.18
749.79	1556.46
749.98	1566.70
750.16	1716.20
750.35	1556.46
750.54	1628.14
750.73	1587.18
750.92	1632.23
751.11	1621.99
751.29	1570.79
751.48	1699.81
751.67	1589.22
751.86	1544.17
752.05	1624.04
752.24	1630.18
752.42	1621.99
752.61	1583.08
752.80	1578.98
752.99	1652.71
753.18	1626.09
753.36	1578.98
753.55	1689.57
753.74	1640.42
753.93	1628.14
754.12	1554.41
754.30	1546.22
754.49	1607.66
754.68	1589.22
754.87	1673.19
755.06	1574.89
755.24	1570.79
755.43	1578.98
755.62	1662.95
755.81	1595.37
755.99	1566.70
756.18	1581.03
756.37	1548.26
756.56	1538.02
756.75	1599.46
756.93	1564.65
757.12	1570.79
757.31	1581.03
757.50	1669.09
757.68	1535.98
757.87	1585.13
758.06	1570.79
758.25	1654.76
758.44	1603.56
758.62	1560.55
758.81	1570.79
759.00	1607.66
759.19	1595.37
759.37	1570.79
759.56	1660.90
759.75	1548.26
759.94	1576.94
760.12	1642.47
760.31	1572.84
760.50	1523.69
760.69	1619.94
760.87	1640.42
761.06	1599.46
761.25	1634.28
761.44	1605.61
761.62	1605.61
761.81	1542.12
762.00	1578.98
762.19	1681.38
762.37	1607.66
762.56	1611.75
762.75	1648.61
762.94	1648.61
763.12	1609.70
763.31	1660.90
763.50	1603.56
763.68	1640.42
763.87	1583.08
764.06	1591.27
764.25	1599.46
764.43	1632.23
764.62	1538.02
764.81	1572.84
764.99	1560.55
765.18	1531.88
765.37	1570.79
765.56	1578.98
765.74	1591.27
765.93	1568.74
766.12	1591.27
766.30	1619.94
766.49	1675.24
766.68	1554.41
766.87	1619.94
767.05	1632.23
767.24	1662.95
767.43	1667.05
767.61	1607.66
767.80	1550.31
767.99	1605.61
768.17	1693.67
768.36	1628.14
768.55	1550.31
768.73	1693.67
768.92	1615.85
769.11	1667.05
769.30	1531.88
769.48	1570.79
769.67	1587.18
769.86	1609.70
770.04	1540.07
770.23	1634.28
770.42	1546.22
770.60	1611.75
770.79	1535.98
770.98	1628.14
771.16	1591.27
771.35	1675.24
771.54	1517.54
771.72	1658.85
771.91	1529.83
772.10	1595.37
772.28	1624.04
772.47	1634.28
772.66	1587.18
772.84	1615.85
773.03	1691.62
773.22	1667.05
773.40	1560.55
773.59	1519.59
773.77	1542.12
773.96	1587.18
774.15	1597.42
774.33	1611.75
774.52	1607.66
774.71	1564.65
774.89	1660.90
775.08	1677.29
775.27	1656.81
775.45	1576.94
775.64	1599.46
775.83	1533.93
776.01	1607.66
776.20	1517.54
776.38	1605.61
776.57	1591.27
776.76	1521.64
776.94	1611.75
777.13	1658.85
777.32	1617.90
777.50	1554.41
777.69	1525.74
777.87	1562.60
778.06	1538.02
778.25	1456.11
778.43	1613.80
778.62	1632.23
778.80	1652.71
778.99	1654.76
779.18	1679.33
779.36	1564.65
779.55	1540.07
779.73	1585.13
779.92	1544.17
780.11	1585.13
780.29	1529.83
780.48	1560.55
780.66	1660.90
780.85	1525.74
781.04	1605.61
781.22	1669.09
781.41	1552.36
781.59	1595.37
781.78	1583.08
781.97	1652.71
782.15	1685.48
782.34	1558.50
782.52	1646.57
782.71	1589.22
782.89	1558.50
783.08	1578.98
783.27	1636.33
783.45	1503.21
783.64	1607.66
783.82	1576.94
784.01	1548.26
784.19	1478.63
784.38	1609.70
784.57	1646.57
784.75	1566.70
784.94	1611.75
785.12	1697.77
785.31	1613.80
785.49	1607.66
785.68	1581.03
785.86	1566.70
786.05	1544.17
786.24	1597.42
786.42	1449.96
786.61	1599.46
786.79	1583.08
786.98	1613.80
787.16	1570.79
787.35	1576.94
787.53	1591.27
787.72	1644.52
787.90	1578.98
788.09	1638.38
788.28	1683.43
788.46	1521.64
788.65	1552.36
788.83	1593.32
789.02	1609.70
789.20	1636.33
789.39	1615.85
789.57	1595.37
789.76	1609.70
789.94	1615.85
790.13	1705.96
790.31	1566.70
790.50	1548.26
790.68	1665.00
790.87	1654.76
791.05	1603.56
791.24	1644.52
791.42	1646.57
791.61	1538.02
791.79	1597.42
791.98	1578.98
792.16	1548.26
792.35	1677.29
792.53	1660.90
792.72	1597.42
792.90	1603.56
793.09	1646.57
793.27	1603.56
793.46	1564.65
793.64	1605.61
793.83	1650.66
794.01	1554.41
794.20	1574.89
794.38	1562.60
794.57	1613.80
794.75	1523.69
794.94	1607.66
795.12	1611.75
795.31	1613.80
795.49	1589.22
795.68	1533.93
795.86	1605.61
796.05	1624.04
796.23	1607.66
796.42	1595.37
796.60	1572.84
796.78	1478.63
796.97	1642.47
797.15	1531.88
797.34	1705.96
797.52	1562.60
797.71	1591.27
797.89	1552.36
798.08	1587.18
798.26	1560.55
798.45	1560.55
798.63	1619.94
798.81	1523.69
799.00	1603.56
799.18	1652.71
799.37	1603.56
799.55	1638.38
799.74	1591.27
799.92	1621.99
800.11	1533.93
800.29	1583.08
800.47	1595.37
800.66	1646.57
800.84	1533.93
801.03	1673.19
801.21	1574.89
801.40	1652.71
801.58	1558.50
801.76	1574.89
801.95	1605.61
802.13	1605.61
802.32	1540.07
802.50	1585.13
802.69	1578.98
802.87	1556.46
803.05	1585.13
803.24	1501.16
803.42	1574.89
803.61	1601.51
803.79	1495.02
803.97	1658.85
804.16	1570.79
804.34	1566.70
804.53	1546.22
804.71	1570.79
804.89	1591.27
805.08	1554.41
805.26	1630.18
805.45	1634.28
805.63	1619.94
805.81	1597.42
806.00	1607.66
806.18	1513.45
806.37	1619.94
806.55	1607.66
806.73	1630.18
806.92	1720.29
807.10	1554.41
807.28	1523.69
807.47	1531.88
807.65	1595.37
807.84	1597.42
808.02	1558.50
808.20	1609.70
808.39	1662.95
808.57	1495.02
808.75	1617.90
808.94	1552.36
809.12	1578.98
809.31	1529.83
809.49	1538.02
809.67	1533.93
809.86	1669.09
810.04	1632.23
810.22	1535.98
810.41	1499.11
810.59	1621.99
810.77	1591.27
810.96	1619.94
811.14	1513.45
811.32	1650.66
811.51	1621.99
811.69	1550.31
811.87	1644.52
812.06	1576.94
812.24	1558.50
812.42	1558.50
812.61	1628.14
812.79	1593.32
812.97	1648.61
813.16	1632.23
813.34	1599.46
813.52	1540.07
813.71	1599.46
813.89	1566.70
814.07	1521.64
814.26	1644.52
814.44	1644.52
814.62	1603.56
814.81	1603.56
814.99	1613.80
815.17	1918.95
815.36	1581.03
815.54	1636.33
815.72	1542.12
815.91	1535.98
816.09	1572.84
816.27	1488.87
816.45	1554.41
816.64	1648.61
816.82	1583.08
817.00	1695.72
817.19	1556.46
817.37	1636.33
817.55	1560.55
817.74	1644.52
817.92	1603.56
818.10	1632.23
818.28	1521.64
818.47	1585.13
818.65	1636.33
818.83	1519.59
819.02	1597.42
819.20	1607.66
819.38	1617.90
819.56	1621.99
819.75	1681.38
819.93	1556.46
820.11	1570.79
820.29	1480.68
820.48	1574.89
820.66	1613.80
820.84	1624.04
821.03	1597.42
821.21	1595.37
821.39	1667.05
821.57	1619.94
821.76	1570.79
821.94	1583.08
822.12	1599.46
822.30	1535.98
822.49	1566.70
822.67	1564.65
822.85	1597.42
823.03	1652.71
823.22	1513.45
823.40	1583.08
823.58	1531.88
823.76	1566.70
823.95	1599.46
824.13	1558.50
824.31	1587.18
824.49	1624.04
824.68	1613.80
824.86	1654.76
825.04	1574.89
825.22	1626.09
825.40	1601.51
825.59	1546.22
825.77	1695.72
825.95	1574.89
826.13	1548.26
826.32	1572.84
826.50	1652.71
826.68	1611.75
826.86	1562.60
827.04	1595.37
827.23	1591.27
827.41	1587.18
827.59	1570.79
827.77	1572.84
827.95	1558.50
828.14	1603.56
828.32	1564.65
828.50	1619.94
828.68	1617.90
828.86	1632.23
829.05	1529.83
829.23	1617.90
829.41	1591.27
829.59	1605.61
829.77	1583.08
829.96	1595.37
830.14	1636.33
830.32	1562.60
830.50	1644.52
830.68	1515.50
830.87	1570.79
831.05	1634.28
831.23	1636.33
831.41	1591.27
831.59	1521.64
831.77	1677.29
831.96	1501.16
832.14	1597.42
832.32	1558.50
832.50	1624.04
832.68	1656.81
832.86	1538.02
833.05	1562.60
833.23	1568.74
833.41	1568.74
833.59	1646.57
833.77	1613.80
833.95	1550.31
834.14	1525.74
834.32	1523.69
834.50	1585.13
834.68	1646.57
834.86	1619.94
835.04	1652.71
835.22	1628.14
835.41	1554.41
835.59	1630.18
835.77	1595.37
835.95	1515.50
836.13	1628.14
836.31	1507.30
836.49	1497.07
836.67	1542.12
836.86	1605.61
837.04	1581.03
837.22	1609.70
837.40	1558.50
837.58	1597.42
837.76	1624.04
837.94	1591.27
838.12	1570.79
838.31	1515.50
838.49	1599.46
838.67	1611.75
838.85	1593.32
839.03	1538.02
839.21	1605.61
839.39	1595.37
839.57	1546.22
839.75	1628.14
839.94	1654.76
840.12	1669.09
840.30	1585.13
840.48	1705.96
840.66	1566.70
840.84	1619.94
841.02	1548.26
841.20	1621.99
841.38	1476.59
841.56	1638.38
841.74	1488.87
841.93	1630.18
842.11	1607.66
842.29	1542.12
842.47	1564.65
842.65	1603.56
842.83	1611.75
843.01	1540.07
843.19	1617.90
843.37	1630.18
843.55	1521.64
843.73	1660.90
843.91	1593.32
844.09	1695.72
844.28	1587.18
844.46	1658.85
844.64	1568.74
844.82	1599.46
845.00	1574.89
845.18	1599.46
845.36	1640.42
845.54	1562.60
845.72	1554.41
845.90	1581.03
846.08	1587.18
846.26	1560.55
846.44	1591.27
846.62	1572.84
846.80	1574.89
846.98	1578.98
847.16	1603.56
847.34	1587.18
847.52	1589.22
847.70	1640.42
847.88	1609.70
848.07	1605.61
848.25	1624.04
848.43	1708.01
848.61	1570.79
848.79	1591.27
848.97	1621.99
849.15	1560.55
849.33	1521.64
849.51	1603.56
849.69	1578.98
849.87	1605.61
850.05	1585.13
850.23	1572.84
850.41	1619.94
850.59	1617.90
850.77	1542.12
850.95	1572.84
851.13	1591.27
851.31	1632.23
851.49	1624.04
851.67	1583.08
851.85	1566.70
852.03	1685.48
852.21	1513.45
852.39	1560.55
852.57	1572.84
852.75	1638.38
852.93	1572.84
853.11	1583.08
853.29	1564.65
853.47	1615.85
853.65	1597.42
853.83	1554.41
854.01	1585.13
854.19	1732.58
854.37	1554.41
854.55	1593.32
854.73	1570.79
854.91	1523.69
855.08	1589.22
855.26	1591.27
855.44	1535.98
855.62	1681.38
855.80	1578.98
855.98	1638.38
856.16	1540.07
856.34	1628.14
856.52	1558.50
856.70	1624.04
856.88	1695.72
857.06	1619.94
857.24	1521.64
857.42	1595.37
857.60	1595.37
857.78	1603.56
857.96	1656.81
858.14	1652.71
858.32	1574.89
858.50	1673.19
858.68	1574.89
858.85	1632.23
859.03	1621.99
859.21	1634.28
859.39	1572.84
859.57	1558.50
859.75	1673.19
859.93	1652.71
860.11	1525.74
860.29	1531.88
860.47	1628.14
860.65	1615.85
860.83	1601.51
861.01	1634.28
861.18	1583.08
861.36	1609.70
861.54	1572.84
861.72	1685.48
861.90	1597.42
862.08	1585.13
862.26	1497.07
862.44	1591.27
862.62	1578.98
862.80	1621.99
862.98	1531.88
863.15	1554.41
863.33	1679.33
863.51	1595.37
863.69	1589.22
863.87	1581.03
864.05	1642.47
864.23	1603.56
864.41	1636.33
864.59	1617.90
864.76	1601.51
864.94	1652.71
865.12	1644.52
865.30	1589.22
865.48	1693.67
865.66	1611.75
865.84	1626.09
866.02	1599.46
866.19	1562.60
866.37	1636.33
866.55	1583.08
866.73	1617.90
866.91	1585.13
867.09	1632.23
867.27	1640.42
867.44	1613.80
867.62	1576.94
867.80	1642.47
867.98	1595.37
868.16	1578.98
868.34	1513.45
868.52	1619.94
868.69	1576.94
868.87	1589.22
869.05	1636.33
869.23	1671.14
869.41	1617.90
869.59	1638.38
869.76	1550.31
869.94	1613.80
870.12	1708.01
870.30	1525.74
870.48	1570.79
870.66	1587.18
870.83	1636.33
871.01	1591.27
871.19	1736.68
871.37	1632.23
871.55	1578.98
871.73	1560.55
871.90	1484.78
872.08	1554.41
872.26	1628.14
872.44	1593.32
872.62	1617.90
872.79	1638.38
872.97	1556.46
873.15	1665.00
873.33	1576.94
873.51	1587.18
873.68	1597.42
873.86	1607.66
874.04	1660.90
874.22	1603.56
874.40	1533.93
874.57	1566.70
874.75	1683.43
874.93	1566.70
875.11	1519.59
875.29	1628.14
875.46	1574.89
875.64	1515.50
875.82	1636.33
876.00	1662.95
876.17	1708.01
876.35	1599.46
876.53	1611.75
876.71	1617.90
876.89	1628.14
877.06	1669.09
877.24	1654.76
877.42	1636.33
877.60	1552.36
877.77	1562.60
877.95	1673.19
878.13	1730.53
878.31	1570.79
878.48	1665.00
878.66	1677.29
878.84	1693.67
879.02	1544.17
879.19	1638.38
879.37	1587.18
879.55	1525.74
879.73	1585.13
879.90	1595.37
880.08	1576.94
880.26	1630.18
880.44	1431.53
880.61	1613.80
880.79	1556.46
880.97	1607.66
881.15	1624.04
881.32	1546.22
881.50	1744.87
881.68	1646.57
881.85	1658.85
882.03	1624.04
882.21	1648.61
882.39	1644.52
882.56	1585.13
882.74	1624.04
882.92	1597.42
883.09	1568.74
883.27	1650.66
883.45	1656.81
883.63	1628.14
883.80	1615.85
883.98	1568.74
884.16	1611.75
884.33	1576.94
884.51	1533.93
884.69	1640.42
884.87	1628.14
885.04	1574.89
885.22	1589.22
885.40	1585.13
885.57	1621.99
885.75	1585.13
885.93	1603.56
886.10	1603.56
886.28	1593.32
886.46	1560.55
886.63	1599.46
886.81	1578.98
886.99	1574.89
887.16	1566.70
887.34	1564.65
887.52	1603.56
887.69	1558.50
887.87	1619.94
888.05	1681.38
888.22	1542.12
888.40	1613.80
888.58	1611.75
888.75	1599.46
888.93	1558.50
889.11	1587.18
889.28	1609.70
889.46	1587.18
889.64	1566.70
889.81	1540.07
889.99	1562.60
890.17	1601.51
890.34	1609.70
890.52	1578.98
890.70	1601.51
890.87	1710.05
891.05	1626.09
891.22	1660.90
891.40	1562.60
891.58	1613.80
891.75	1556.46
891.93	1554.41
892.11	1570.79
892.28	1603.56
892.46	1652.71
892.63	1648.61
892.81	1597.42
892.99	1636.33
893.16	1640.42
893.34	1552.36
893.52	1540.07
893.69	1652.71
893.87	1562.60
894.04	1646.57
894.22	1529.83
894.40	1636.33
894.57	1564.65
894.75	1624.04
894.92	1732.58
895.10	1554.41
895.28	1599.46
895.45	1626.09
895.63	1605.61
895.80	1527.78
895.98	1576.94
896.16	1607.66
896.33	1701.86
896.51	1611.75
896.68	1658.85
896.86	1558.50
897.04	1601.51
897.21	1552.36
897.39	1576.94
897.56	1572.84
897.74	1574.89
897.91	1533.93
898.09	1652.71
898.27	1591.27
898.44	1581.03
898.62	1529.83
898.79	1593.32
898.97	1589.22
899.14	1662.95
899.32	1630.18
899.49	1701.86
899.67	1648.61
899.85	1507.30
900.02	1560.55
900.20	1595.37
900.37	1550.31
900.55	1587.18
900.72	1597.42
900.90	1597.42
901.07	1574.89
901.25	1587.18
901.43	1572.84
901.60	1624.04
901.78	1591.27
901.95	1552.36
902.13	1574.89
902.30	1578.98
902.48	1591.27
902.65	1525.74
902.83	1546.22
903.00	1560.55
903.18	1587.18
903.35	1669.09
903.53	1646.57
903.70	1611.75
903.88	1554.41
904.05	1595.37
904.23	1564.65
904.40	1513.45
904.58	1484.78
904.75	1605.61
904.93	1650.66
905.10	1599.46
905.28	1613.80
905.45	1566.70
905.63	1581.03
905.80	1562.60
905.98	1603.56
906.15	1515.50
906.33	1648.61
906.50	1609.70
906.68	1601.51
906.85	1599.46
907.03	1603.56
907.20	1529.83
907.38	1630.18
907.55	1544.17
907.73	1599.46
907.90	1546.22
908.08	1605.61
908.25	1587.18
908.43	1521.64
908.60	1593.32
908.78	1603.56
908.95	1578.98
909.13	1650.66
909.30	1531.88
909.47	1646.57
909.65	1611.75
909.82	1599.46
910.00	1607.66
910.17	1656.81
910.35	1650.66
910.52	1636.33
910.70	1525.74
910.87	1611.75
911.05	1513.45
911.22	1558.50
911.39	1712.10
911.57	1656.81
911.74	1556.46
911.92	1611.75
912.09	1628.14
912.27	1753.06
912.44	1677.29
912.61	1550.31
912.79	1572.84
912.96	1632.23
913.14	1660.90
913.31	1585.13
913.49	1550.31
913.66	1607.66
913.83	1572.84
914.01	1595.37
914.18	1568.74
914.36	1648.61
914.53	1603.56
914.70	1581.03
914.88	1658.85
915.05	1695.72
915.23	1613.80
915.40	1628.14
915.58	1558.50
915.75	1566.70
915.92	1578.98
916.10	1689.57
916.27	1593.32
916.44	1552.36
916.62	1535.98
916.79	1591.27
916.97	1595.37
917.14	1648.61
917.31	1648.61
917.49	1581.03
917.66	1619.94
917.84	1718.25
918.01	1615.85
918.18	1714.15
918.36	1599.46
918.53	1644.52
918.70	1679.33
918.88	1574.89
919.05	1581.03
919.23	1644.52
919.40	1621.99
919.57	1568.74
919.75	1597.42
919.92	1503.21
920.09	1607.66
920.27	1615.85
920.44	1564.65
920.61	1644.52
920.79	1660.90
920.96	1603.56
921.13	1611.75
921.31	1566.70
921.48	1619.94
921.65	1615.85
921.83	1607.66
922.00	1556.46
922.17	1578.98
922.35	1531.88
922.52	1605.61
922.69	1634.28
922.87	1621.99
923.04	1550.31
923.21	1554.41
923.39	1603.56
923.56	1621.99
923.73	1632.23
923.91	1615.85
924.08	1599.46
924.25	1646.57
924.43	1570.79
924.60	1587.18
924.77	1718.25
924.95	1615.85
925.12	1665.00
925.29	1701.86
925.47	1624.04
925.64	1574.89
925.81	1626.09
925.98	1527.78
926.16	1574.89
926.33	1566.70
926.50	1544.17
926.68	1597.42
926.85	1665.00
927.02	1613.80
927.19	1599.46
927.37	1710.05
927.54	1595.37
927.71	1632.23
927.89	1515.50
928.06	1552.36
928.23	1615.85
928.40	1714.15
928.58	1607.66
928.75	1521.64
928.92	1587.18
929.09	1607.66
929.27	1607.66
929.44	1619.94
929.61	1640.42
929.79	1562.60
929.96	1621.99
930.13	1601.51
930.30	1578.98
930.48	1630.18
930.65	1535.98
930.82	1558.50
930.99	1634.28
931.17	1603.56
931.34	1540.07
931.51	1531.88
931.68	1576.94
931.85	1578.98
932.03	1531.88
932.20	1621.99
932.37	1665.00
932.54	1654.76
932.72	1681.38
932.89	1585.13
933.06	1617.90
933.23	1628.14
933.41	1572.84
933.58	1630.18
933.75	1562.60
933.92	1636.33
934.09	1603.56
934.27	1597.42
934.44	1652.71
934.61	1679.33
934.78	1525.74
934.95	1650.66
935.13	1570.79
935.30	1638.38
935.47	1595.37
935.64	1574.89
935.81	1572.84
935.99	1611.75
936.16	1597.42
936.33	1554.41
936.50	1591.27
936.67	1562.60
936.85	1556.46
937.02	1630.18
937.19	1570.79
937.36	1572.84
937.53	1595.37
937.71	1591.27
937.88	1650.66
938.05	1554.41
938.22	1574.89
938.39	1589.22
938.56	1609.70
938.74	1621.99
938.91	1605.61
939.08	1611.75
939.25	1507.30
939.42	1488.87
939.59	1689.57
939.77	1601.51
939.94	1574.89
940.11	1624.04
940.28	1599.46
940.45	1630.18
940.62	1607.66
940.79	1603.56
940.97	1607.66
941.14	1626.09
941.31	1673.19
941.48	1626.09
941.65	1613.80
941.82	1617.90
941.99	1669.09
942.17	1540.07
942.34	1538.02
942.51	1619.94
942.68	1630.18
942.85	1652.71
943.02	1574.89
943.19	1607.66
943.36	1626.09
943.54	1535.98
943.71	1624.04
943.88	1581.03
944.05	1634.28
944.22	1646.57
944.39	1613.80
944.56	1585.13
944.73	1538.02
944.90	1638.38
945.08	1583.08
945.25	1521.64
945.42	1677.29
945.59	1589.22
945.76	1521.64
945.93	1603.56
946.10	1581.03
946.27	1488.87
946.44	1574.89
946.61	1570.79
946.78	1556.46
946.96	1578.98
947.13	1630.18
947.30	1591.27
947.47	1583.08
947.64	1667.05
947.81	1624.04
947.98	1591.27
948.15	1566.70
948.32	1558.50
948.49	1568.74
948.66	1607.66
948.83	1613.80
949.00	1636.33
949.17	1570.79
949.35	1576.94
949.52	1621.99
949.69	1595.37
949.86	1591.27
950.03	1525.74
950.20	1554.41
950.37	1652.71
950.54	1662.95
950.71	1591.27
950.88	1601.51
951.05	1587.18
951.22	1591.27
951.39	1644.52
951.56	1589.22
951.73	1529.83
951.90	1558.50
952.07	1578.98
952.24	1607.66
952.41	1548.26
952.58	1644.52
952.75	1613.80
952.92	1648.61
953.09	1619.94
953.26	1595.37
953.43	1607.66
953.60	1611.75
953.77	1697.77
953.94	1607.66
954.11	1677.29
954.28	1617.90
954.45	1564.65
954.62	1501.16
954.79	1578.98
954.96	1675.24
955.13	1742.82
955.30	1570.79
955.47	1570.79
955.64	1599.46
955.81	1564.65
955.98	1624.04
956.15	1574.89
956.32	1617.90
956.49	1581.03
956.66	1662.95
956.83	1585.13
957.00	1511.40
957.17	1621.99
957.34	1611.75
957.51	1572.84
957.68	1593.32
957.85	1583.08
958.02	1607.66
958.19	1628.14
958.36	1517.54
958.53	1624.04
958.70	1603.56
958.87	1538.02
959.04	1583.08
959.21	1603.56
959.38	1507.30
959.55	1662.95
959.72	1638.38
959.89	1593.32
960.06	1607.66
960.23	1644.52
960.39	1646.57
960.56	1585.13
960.73	1562.60
960.90	1574.89
961.07	1619.94
961.24	1556.46
961.41	1652.71
961.58	1511.40
961.75	1589.22
961.92	1593.32
962.09	1556.46
962.26	1570.79
962.43	1554.41
962.60	1615.85
962.76	1638.38
962.93	1607.66
963.10	1521.64
963.27	1583.08
963.44	1519.59
963.61	1630.18
963.78	1591.27
963.95	1589.22
964.12	1572.84
964.29	1644.52
964.46	1621.99
964.62	1593.32
964.79	1730.53
964.96	1611.75
965.13	1581.03
965.30	1624.04
965.47	1638.38
965.64	1640.42
965.81	1605.61
965.98	1628.14
966.14	1691.62
966.31	1578.98
966.48	1566.70
966.65	1550.31
966.82	1671.14
966.99	1581.03
967.16	1554.41
967.33	1646.57
967.49	1558.50
967.66	1607.66
967.83	1601.51
968.00	1583.08
968.17	1632.23
968.34	1554.41
968.51	1568.74
968.67	1630.18
968.84	1544.17
969.01	1621.99
969.18	1703.91
969.35	1566.70
969.52	1632.23
969.68	1595.37
969.85	1599.46
970.02	1562.60
970.19	1595.37
970.36	1648.61
970.53	1650.66
970.69	1583.08
970.86	1587.18
971.03	1589.22
971.20	1660.90
971.37	1542.12
971.54	1601.51
971.70	1607.66
971.87	1556.46
972.04	1656.81
972.21	1687.53
972.38	1636.33
972.55	1624.04
972.71	1636.33
972.88	1548.26
973.05	1478.63
973.22	1662.95
973.39	1669.09
973.55	1572.84
973.72	1652.71
973.89	1615.85
974.06	1603.56
974.23	1669.09
974.39	1646.57
974.56	1626.09
974.73	1560.55
974.90	1636.33
975.06	1636.33
975.23	1566.70
975.40	1591.27
975.57	1599.46
975.74	1628.14
975.90	1587.18
976.07	1605.61
976.24	1613.80
976.41	1578.98
976.57	1552.36
976.74	1576.94
976.91	1581.03
977.08	1621.99
977.24	1556.46
977.41	1587.18
977.58	1611.75
977.75	1593.32
977.92	1576.94
978.08	1634.28
978.25	1619.94
978.42	1525.74
978.58	1585.13
978.75	1546.22
978.92	1611.75
979.09	1587.18
979.25	1603.56
979.42	1644.52
979.59	1624.04
979.76	1552.36
979.92	1593.32
980.09	1607.66
980.26	1542.12
980.43	1611.75
980.59	1644.52
980.76	1621.99
980.93	1535.98
981.09	1490.92
981.26	1589.22
981.43	1587.18
981.60	1587.18
981.76	1615.85
981.93	1597.42
982.10	1624.04
982.26	1529.83
982.43	1589.22
982.60	1566.70
982.77	1583.08
982.93	1695.72
983.10	1587.18
983.27	1587.18
983.43	1589.22
983.60	1599.46
983.77	1605.61
983.93	1505.26
984.10	1658.85
984.27	1585.13
984.43	1654.76
984.60	1583.08
984.77	1628.14
984.93	1570.79
985.10	1513.45
985.27	1626.09
985.43	1599.46
985.60	1589.22
985.77	1564.65
985.93	1552.36
986.10	1529.83
986.27	1593.32
986.43	1675.24
986.60	1628.14
986.77	1591.27
986.93	1595.37
987.10	1583.08
987.27	1673.19
987.43	1517.54
987.60	1597.42
987.77	1546.22
987.93	1603.56
988.10	1595.37
988.27	1556.46
988.43	1564.65
988.60	1587.18
988.76	1630.18
988.93	1646.57
989.10	1556.46
989.26	1578.98
989.43	1585.13
989.60	1556.46
989.76	1593.32
989.93	1587.18
990.09	1523.69
990.26	1619.94
990.43	1564.65
990.59	1560.55
990.76	1601.51
990.92	1665.00
991.09	1624.04
991.26	1654.76
991.42	1562.60
991.59	1628.14
991.76	1628.14
991.92	1669.09
992.09	1568.74
992.25	1617.90
992.42	1621.99
992.58	1533.93
992.75	1587.18
992.92	1564.65
993.08	1630.18
993.25	1619.94
993.41	1566.70
993.58	1621.99
993.75	1628.14
993.91	1605.61
994.08	1556.46
994.24	1650.66
994.41	1548.26
994.57	1591.27
994.74	1599.46
994.91	1585.13
995.07	1593.32
995.24	1578.98
995.40	1507.30
995.57	1644.52
995.73	1621.99
995.90	1601.51
996.06	1589.22
996.23	1617.90
996.40	1554.41
996.56	1630.18
996.73	1574.89
996.89	1597.42
997.06	1550.31
997.22	1619.94
997.39	1609.70
997.55	1535.98
997.72	1601.51
997.88	1560.55
998.05	1542.12
998.21	1644.52
998.38	1576.94
998.54	1554.41
998.71	1581.03
998.87	1658.85
999.04	1583.08
999.21	1634.28
999.37	1615.85
999.54	1714.15
999.70	1515.50
999.87	1656.81
1000.03	1607.66
1000.20	1630.18
1000.36	1638.38
1000.53	1587.18
1000.69	1611.75
1000.86	1615.85
1001.02	1613.80
1001.19	1636.33
1001.35	1630.18
1001.52	1652.71
1001.68	1603.56
1001.84	1540.07
1002.01	1626.09
1002.17	1583.08
1002.34	1535.98
1002.50	1712.10
1002.67	1540.07
1002.83	1509.35
1003.00	1574.89
1003.16	1624.04
1003.33	1525.74
1003.49	1619.94
1003.66	1566.70
1003.82	1589.22
1003.99	1517.54
1004.15	1578.98
1004.32	1560.55
1004.48	1615.85
1004.64	1554.41
1004.81	1681.38
1004.97	1636.33
1005.14	1578.98
1005.30	1558.50
1005.47	1624.04
1005.63	1632.23
1005.80	1617.90
1005.96	1572.84
1006.12	1503.21
1006.29	1626.09
1006.45	1665.00
1006.62	1609.70
1006.78	1611.75
1006.95	1632.23
1007.11	1624.04
1007.27	1611.75
1007.44	1714.15
1007.60	1570.79
1007.77	1597.42
1007.93	1552.36
1008.09	1611.75
1008.26	1595.37
1008.42	1720.29
1008.59	1654.76
1008.75	1603.56
1008.92	1624.04
1009.08	1660.90
1009.24	1630.18
1009.41	1564.65
1009.57	1632.23
1009.73	1617.90
1009.90	1638.38
1010.06	1695.72
1010.23	1652.71
1010.39	1701.86
1010.55	1523.69
1010.72	1611.75
1010.88	1593.32
1011.05	1550.31
1011.21	1605.61
1011.37	1589.22
1011.54	1638.38
1011.70	1574.89
1011.86	1628.14
1012.03	1556.46
1012.19	1482.73
1012.36	1552.36
1012.52	1613.80
1012.68	1523.69
1012.85	1630.18
1013.01	1558.50
1013.17	1521.64
1013.34	1566.70
1013.50	1587.18
1013.66	1570.79
1013.83	1619.94
1013.99	1517.54
1014.15	1550.31
1014.32	1673.19
1014.48	1581.03
1014.64	1529.83
1014.81	1591.27
1014.97	1593.32
1015.13	1624.04
1015.30	1583.08
1015.46	1562.60
1015.62	1605.61
1015.79	1619.94
1015.95	1607.66
1016.11	1648.61
1016.28	1660.90
1016.44	1607.66
1016.60	1552.36
1016.77	1538.02
1016.93	1597.42
1017.09	1642.47
1017.26	1542.12
1017.42	1636.33
1017.58	1585.13
1017.74	1689.57
1017.91	1523.69
1018.07	1607.66
1018.23	1628.14
1018.40	1646.57
1018.56	1513.45
1018.72	1505.26
1018.88	1605.61
1019.05	1581.03
1019.21	1607.66
1019.37	1693.67
1019.54	1578.98
1019.70	1605.61
1019.86	1597.42
1020.02	1564.65
1020.19	1554.41
1020.35	1581.03
1020.51	1497.07
1020.68	1570.79
1020.84	1578.98
1021.00	1679.33
1021.16	1617.90
1021.33	1636.33
1021.49	1689.57
1021.65	1660.90
1021.81	1660.90
1021.98	1583.08
1022.14	1673.19
1022.30	1605.61
1022.46	1615.85
1022.63	1566.70
1022.79	1681.38
1022.95	1558.50
1023.11	1570.79
1023.27	1554.41
1023.44	1568.74
1023.60	1568.74
1023.76	1581.03
1023.92	1656.81
1024.09	1626.09
1024.25	1634.28
1024.41	1738.73
1024.57	1603.56
1024.74	1499.11
1024.90	1548.26
1025.06	1599.46
1025.22	1581.03
1025.38	1566.70
1025.55	1611.75
1025.71	1611.75
1025.87	1587.18
1026.03	1546.22
1026.19	1615.85
1026.36	1646.57
1026.52	1626.09
1026.68	1548.26
1026.84	1540.07
1027.00	1636.33
1027.17	1611.75
1027.33	1615.85
1027.49	1652.71
1027.65	1589.22
1027.81	1558.50
1027.97	1691.62
1028.14	1624.04
1028.30	1642.47
1028.46	1593.32
1028.62	1546.22
1028.78	1638.38
1028.94	1607.66
1029.11	1599.46
1029.27	1591.27
1029.43	1619.94
1029.59	1613.80
1029.75	1621.99
1029.91	1615.85
1030.08	1632.23
1030.24	1613.80
1030.40	1581.03
1030.56	1546.22
1030.72	1611.75
1030.88	1628.14
1031.04	1628.14
1031.21	1583.08
1031.37	1630.18
1031.53	1656.81
1031.69	1583.08
1031.85	1570.79
1032.01	1531.88
1032.17	1640.42
1032.34	1695.72
1032.50	1611.75
1032.66	1597.42
1032.82	1619.94
1032.98	1562.60
1033.14	1570.79
1033.30	1619.94
1033.46	1669.09
1033.62	1587.18
1033.79	1578.98
1033.95	1667.05
1034.11	1669.09
1034.27	1587.18
1034.43	1538.02
1034.59	1556.46
1034.75	1685.48
1034.91	1611.75
1035.07	1681.38
1035.23	1587.18
1035.40	1619.94
1035.56	1634.28
1035.72	1601.51
1035.88	1667.05
1036.04	1566.70
1036.20	1628.14
>>>>>End Processed Spectral Data<<<<<
