SpectraSuite Data File
++++++++++++++++++++++++++++++++++++
Date: Fri May 12 15:43:12 EDT 2017
User: jcherston
Dark Spectrum Present: Yes
Reference Spectrum Present: Yes
Number of Sampled Component Spectra: 1
Spectrometers: USB4F06975
Integration Time (usec): 100000 (USB4F06975)
Spectra Averaged: 1 (USB4F06975)
Boxcar Smoothing: 0 (USB4F06975)
Correct for Electrical Dark: No (USB4F06975)
Strobe/Lamp Enabled: No (USB4F06975)
Correct for Detector Non-linearity: No (USB4F06975)
Correct for Stray Light: No (USB4F06975)
Number of Pixels in Processed Spectrum: 3648
>>>>>Begin Processed Spectral Data<<<<<
346.57	1413.10
346.78	1413.10
346.99	1413.10
347.20	1484.78
347.41	1486.83
347.62	1611.75
347.83	1638.38
348.04	1566.70
348.25	1562.60
348.46	1646.57
348.67	1595.37
348.88	1599.46
349.09	1562.60
349.30	1634.28
349.51	1521.64
349.72	1601.51
349.93	1593.32
350.14	1587.18
350.35	1583.08
350.56	1601.51
350.77	1665.00
350.98	1603.56
351.19	1574.89
351.40	1699.81
351.61	1544.17
351.82	1597.42
352.03	1568.74
352.24	1644.52
352.45	1667.05
352.66	1630.18
352.87	1566.70
353.08	1634.28
353.29	1595.37
353.50	1621.99
353.71	1705.96
353.92	1583.08
354.13	1681.38
354.34	1552.36
354.55	1605.61
354.76	1624.04
354.97	1675.24
355.18	1585.13
355.39	1548.26
355.60	1679.33
355.80	1634.28
356.01	1574.89
356.22	1566.70
356.43	1585.13
356.64	1574.89
356.85	1599.46
357.06	1658.85
357.27	1621.99
357.48	1578.98
357.69	1589.22
357.90	1581.03
358.11	1640.42
358.32	1619.94
358.53	1511.40
358.74	1585.13
358.95	1609.70
359.16	1677.29
359.37	1599.46
359.58	1603.56
359.79	1570.79
360.00	1601.51
360.21	1619.94
360.42	1613.80
360.63	1597.42
360.84	1630.18
361.05	1538.02
361.26	1624.04
361.46	1560.55
361.67	1628.14
361.88	1617.90
362.09	1591.27
362.30	1636.33
362.51	1574.89
362.72	1669.09
362.93	1578.98
363.14	1589.22
363.35	1677.29
363.56	1550.31
363.77	1630.18
363.98	1615.85
364.19	1689.57
364.40	1544.17
364.61	1630.18
364.82	1556.46
365.03	1613.80
365.24	1599.46
365.44	1552.36
365.65	1558.50
365.86	1681.38
366.07	1595.37
366.28	1570.79
366.49	1632.23
366.70	1675.24
366.91	1652.71
367.12	1513.45
367.33	1581.03
367.54	1644.52
367.75	1583.08
367.96	1609.70
368.17	1540.07
368.38	1662.95
368.58	1597.42
368.79	1662.95
369.00	1603.56
369.21	1652.71
369.42	1583.08
369.63	1675.24
369.84	1605.61
370.05	1591.27
370.26	1589.22
370.47	1636.33
370.68	1566.70
370.89	1632.23
371.09	1628.14
371.30	1669.09
371.51	1566.70
371.72	1648.61
371.93	1654.76
372.14	1572.84
372.35	1615.85
372.56	1587.18
372.77	1562.60
372.98	1544.17
373.19	1611.75
373.40	1669.09
373.60	1589.22
373.81	1652.71
374.02	1636.33
374.23	1523.69
374.44	1650.66
374.65	1605.61
374.86	1646.57
375.07	1619.94
375.28	1595.37
375.49	1658.85
375.69	1658.85
375.90	1665.00
376.11	1515.50
376.32	1550.31
376.53	1607.66
376.74	1581.03
376.95	1597.42
377.16	1615.85
377.37	1718.25
377.58	1605.61
377.78	1531.88
377.99	1505.26
378.20	1624.04
378.41	1677.29
378.62	1638.38
378.83	1683.43
379.04	1628.14
379.25	1726.44
379.46	1673.19
379.66	1669.09
379.87	1621.99
380.08	1656.81
380.29	1628.14
380.50	1615.85
380.71	1566.70
380.92	1683.43
381.13	1591.27
381.33	1511.40
381.54	1619.94
381.75	1574.89
381.96	1546.22
382.17	1544.17
382.38	1603.56
382.59	1589.22
382.80	1607.66
383.00	1675.24
383.21	1531.88
383.42	1529.83
383.63	1589.22
383.84	1679.33
384.05	1519.59
384.26	1626.09
384.47	1644.52
384.67	1648.61
384.88	1554.41
385.09	1578.98
385.30	1603.56
385.51	1665.00
385.72	1595.37
385.93	1533.93
386.13	1601.51
386.34	1562.60
386.55	1665.00
386.76	1523.69
386.97	1640.42
387.18	1572.84
387.39	1558.50
387.59	1583.08
387.80	1626.09
388.01	1691.62
388.22	1601.51
388.43	1636.33
388.64	1615.85
388.85	1652.71
389.05	1644.52
389.26	1652.71
389.47	1558.50
389.68	1697.77
389.89	1482.73
390.10	1619.94
390.31	1599.46
390.51	1628.14
390.72	1566.70
390.93	1626.09
391.14	1554.41
391.35	1517.54
391.56	1662.95
391.76	1697.77
391.97	1656.81
392.18	1652.71
392.39	1638.38
392.60	1646.57
392.81	1595.37
393.01	1593.32
393.22	1587.18
393.43	1605.61
393.64	1603.56
393.85	1595.37
394.06	1570.79
394.26	1660.90
394.47	1712.10
394.68	1636.33
394.89	1621.99
395.10	1675.24
395.31	1630.18
395.51	1650.66
395.72	1558.50
395.93	1540.07
396.14	1605.61
396.35	1617.90
396.55	1595.37
396.76	1587.18
396.97	1587.18
397.18	1669.09
397.39	1570.79
397.60	1564.65
397.80	1619.94
398.01	1546.22
398.22	1587.18
398.43	1658.85
398.64	1583.08
398.84	1587.18
399.05	1597.42
399.26	1699.81
399.47	1548.26
399.68	1652.71
399.88	1613.80
400.09	1585.13
400.30	1648.61
400.51	1638.38
400.72	1628.14
400.92	1671.14
401.13	1601.51
401.34	1576.94
401.55	1660.90
401.76	1597.42
401.96	1644.52
402.17	1652.71
402.38	1652.71
402.59	1646.57
402.80	1959.91
403.00	1685.48
403.21	1572.84
403.42	1591.27
403.63	1607.66
403.84	1546.22
404.04	1611.75
404.25	1554.41
404.46	1574.89
404.67	1560.55
404.88	1599.46
405.08	1697.77
405.29	1566.70
405.50	1699.81
405.71	1560.55
405.91	1615.85
406.12	1599.46
406.33	1570.79
406.54	1574.89
406.75	1597.42
406.95	1497.07
407.16	1599.46
407.37	1654.76
407.58	1581.03
407.78	1873.89
407.99	1587.18
408.20	1554.41
408.41	1587.18
408.62	1599.46
408.82	1548.26
409.03	1554.41
409.24	1581.03
409.45	1525.74
409.65	1613.80
409.86	1513.45
410.07	1615.85
410.28	1560.55
410.48	1648.61
410.69	1624.04
410.90	1673.19
411.11	1566.70
411.31	1626.09
411.52	1603.56
411.73	1595.37
411.94	1624.04
412.14	1603.56
412.35	1556.46
412.56	1619.94
412.77	1564.65
412.98	1591.27
413.18	1460.20
413.39	1708.01
413.60	1689.57
413.81	1611.75
414.01	1652.71
414.22	1574.89
414.43	1621.99
414.64	1492.97
414.84	1519.59
415.05	1562.60
415.26	1540.07
415.46	1513.45
415.67	1611.75
415.88	1558.50
416.09	1550.31
416.29	1595.37
416.50	1572.84
416.71	1546.22
416.92	1665.00
417.12	1544.17
417.33	1585.13
417.54	1658.85
417.75	1501.16
417.95	1597.42
418.16	1607.66
418.37	1576.94
418.58	1613.80
418.78	1568.74
418.99	1654.76
419.20	1542.12
419.40	1677.29
419.61	1542.12
419.82	1521.64
420.03	1558.50
420.23	1615.85
420.44	1656.81
420.65	1665.00
420.85	1587.18
421.06	1593.32
421.27	1646.57
421.48	1615.85
421.68	1652.71
421.89	1621.99
422.10	1587.18
422.30	1611.75
422.51	1558.50
422.72	1556.46
422.93	1591.27
423.13	1554.41
423.34	1599.46
423.55	1595.37
423.75	1748.97
423.96	1624.04
424.17	1578.98
424.38	1654.76
424.58	1511.40
424.79	1562.60
425.00	1566.70
425.20	1597.42
425.41	1652.71
425.62	1636.33
425.83	1544.17
426.03	1523.69
426.24	1667.05
426.45	1595.37
426.65	1570.79
426.86	1587.18
427.07	1619.94
427.27	1621.99
427.48	1615.85
427.69	1632.23
427.89	1572.84
428.10	1714.15
428.31	1652.71
428.52	1648.61
428.72	1673.19
428.93	1632.23
429.14	1660.90
429.34	1552.36
429.55	1613.80
429.76	1546.22
429.96	1632.23
430.17	1658.85
430.38	1558.50
430.58	1581.03
430.79	1570.79
431.00	1572.84
431.20	1697.77
431.41	1578.98
431.62	1693.67
431.82	1662.95
432.03	1564.65
432.24	1538.02
432.44	1687.53
432.65	1617.90
432.86	1656.81
433.06	1609.70
433.27	1587.18
433.48	1693.67
433.68	1495.02
433.89	1589.22
434.10	1630.18
434.30	1593.32
434.51	1634.28
434.72	1599.46
434.92	1726.44
435.13	1560.55
435.34	1562.60
435.54	1550.31
435.75	1697.77
435.96	1521.64
436.16	1640.42
436.37	1511.40
436.58	1566.70
436.78	1619.94
436.99	1617.90
437.20	1656.81
437.40	1650.66
437.61	1529.83
437.82	1544.17
438.02	1611.75
438.23	1578.98
438.43	1693.67
438.64	1646.57
438.85	1609.70
439.05	1603.56
439.26	1617.90
439.47	1683.43
439.67	1587.18
439.88	1619.94
440.09	1523.69
440.29	1595.37
440.50	1654.76
440.71	1583.08
440.91	1615.85
441.12	1587.18
441.32	1550.31
441.53	1671.14
441.74	1583.08
441.94	1515.50
442.15	1525.74
442.36	1667.05
442.56	1503.21
442.77	1628.14
442.97	1572.84
443.18	1798.12
443.39	1597.42
443.59	1589.22
443.80	1597.42
444.01	1654.76
444.21	1654.76
444.42	1671.14
444.62	1511.40
444.83	1587.18
445.04	1644.52
445.24	1599.46
445.45	1589.22
445.66	1644.52
445.86	1662.95
446.07	1566.70
446.27	1609.70
446.48	1560.55
446.69	1607.66
446.89	1673.19
447.10	1535.98
447.30	1548.26
447.51	1589.22
447.72	1693.67
447.92	1693.67
448.13	1603.56
448.33	1621.99
448.54	1636.33
448.75	1550.31
448.95	1685.48
449.16	1570.79
449.36	1628.14
449.57	1632.23
449.78	1740.77
449.98	1689.57
450.19	1576.94
450.39	1654.76
450.60	1648.61
450.81	1613.80
451.01	1611.75
451.22	1546.22
451.42	1509.35
451.63	1603.56
451.84	1583.08
452.04	1632.23
452.25	1630.18
452.45	1644.52
452.66	1601.51
452.86	1630.18
453.07	1636.33
453.28	1609.70
453.48	1660.90
453.69	1652.71
453.89	1599.46
454.10	1652.71
454.30	1538.02
454.51	1517.54
454.72	1550.31
454.92	1546.22
455.13	1548.26
455.33	1587.18
455.54	1656.81
455.74	1581.03
455.95	1628.14
456.16	1646.57
456.36	1615.85
456.57	1626.09
456.77	1581.03
456.98	1621.99
457.18	1662.95
457.39	1677.29
457.60	1558.50
457.80	1644.52
458.01	1572.84
458.21	1615.85
458.42	1621.99
458.62	1611.75
458.83	1578.98
459.03	1624.04
459.24	1648.61
459.45	1589.22
459.65	1591.27
459.86	1671.14
460.06	1607.66
460.27	1589.22
460.47	1570.79
460.68	1624.04
460.88	1658.85
461.09	1529.83
461.30	1593.32
461.50	1630.18
461.71	1673.19
461.91	1531.88
462.12	1556.46
462.32	1576.94
462.53	1587.18
462.73	1521.64
462.94	1628.14
463.14	1642.47
463.35	1636.33
463.55	1570.79
463.76	1587.18
463.96	1578.98
464.17	1574.89
464.38	1589.22
464.58	1638.38
464.79	1611.75
464.99	1611.75
465.20	1693.67
465.40	1665.00
465.61	1574.89
465.81	1624.04
466.02	1542.12
466.22	1562.60
466.43	1583.08
466.63	1535.98
466.84	1607.66
467.04	1599.46
467.25	1650.66
467.45	1654.76
467.66	1648.61
467.86	1693.67
468.07	1601.51
468.27	1632.23
468.48	1609.70
468.68	1570.79
468.89	1615.85
469.09	1554.41
469.30	1578.98
469.51	1626.09
469.71	1617.90
469.92	1595.37
470.12	1607.66
470.33	1613.80
470.53	1521.64
470.74	1669.09
470.94	1517.54
471.15	1613.80
471.35	2004.96
471.56	1597.42
471.76	1529.83
471.97	1652.71
472.17	1552.36
472.38	1574.89
472.58	1621.99
472.78	1605.61
472.99	1673.19
473.19	1540.07
473.40	1591.27
473.60	1712.10
473.81	1581.03
474.01	1562.60
474.22	1636.33
474.42	1744.87
474.63	1677.29
474.83	1574.89
475.04	1607.66
475.24	1609.70
475.45	1611.75
475.65	1644.52
475.86	1585.13
476.06	1570.79
476.27	1619.94
476.47	1562.60
476.68	1671.14
476.88	1611.75
477.09	1621.99
477.29	1572.84
477.50	1572.84
477.70	1628.14
477.90	1576.94
478.11	1665.00
478.31	1593.32
478.52	1597.42
478.72	1564.65
478.93	1615.85
479.13	1701.86
479.34	1599.46
479.54	1603.56
479.75	1574.89
479.95	1617.90
480.16	1701.86
480.36	1542.12
480.56	1601.51
480.77	1599.46
480.97	1726.44
481.18	1540.07
481.38	1726.44
481.59	1605.61
481.79	1613.80
482.00	1644.52
482.20	1638.38
482.41	1808.36
482.61	1642.47
482.81	1636.33
483.02	1701.86
483.22	1540.07
483.43	1621.99
483.63	1658.85
483.84	1470.44
484.04	1656.81
484.24	1581.03
484.45	1626.09
484.65	1619.94
484.86	1632.23
485.06	1578.98
485.27	1515.50
485.47	1611.75
485.68	1667.05
485.88	1566.70
486.08	1587.18
486.29	1660.90
486.49	1685.48
486.70	1662.95
486.90	1691.62
487.11	1718.25
487.31	1593.32
487.51	1634.28
487.72	1691.62
487.92	1646.57
488.13	1736.68
488.33	1546.22
488.53	1656.81
488.74	1615.85
488.94	1556.46
489.15	1531.88
489.35	1554.41
489.56	1652.71
489.76	1611.75
489.96	1570.79
490.17	1601.51
490.37	1669.09
490.58	1693.67
490.78	1613.80
490.98	1607.66
491.19	1613.80
491.39	1615.85
491.60	1628.14
491.80	1624.04
492.00	1673.19
492.21	1636.33
492.41	1652.71
492.62	1611.75
492.82	1548.26
493.02	1626.09
493.23	1669.09
493.43	1644.52
493.64	1675.24
493.84	1607.66
494.04	1646.57
494.25	1607.66
494.45	1589.22
494.66	1693.67
494.86	1609.70
495.06	1662.95
495.27	1583.08
495.47	1738.73
495.67	1583.08
495.88	1591.27
496.08	1619.94
496.29	1636.33
496.49	1591.27
496.69	1634.28
496.90	1583.08
497.10	1609.70
497.30	1665.00
497.51	1562.60
497.71	1583.08
497.92	1689.57
498.12	1593.32
498.32	1621.99
498.53	1658.85
498.73	1630.18
498.93	1669.09
499.14	1562.60
499.34	1705.96
499.55	1597.42
499.75	1601.51
499.95	1603.56
500.16	1699.81
500.36	1605.61
500.56	1550.31
500.77	1593.32
500.97	1605.61
501.17	1730.53
501.38	1558.50
501.58	1605.61
501.79	1710.05
501.99	1576.94
502.19	1611.75
502.40	1628.14
502.60	1695.72
502.80	1605.61
503.01	1628.14
503.21	1619.94
503.41	1576.94
503.62	1697.77
503.82	1609.70
504.02	1613.80
504.23	1665.00
504.43	1695.72
504.63	1605.61
504.84	1630.18
505.04	1607.66
505.24	1607.66
505.45	1615.85
505.65	1652.71
505.85	1626.09
506.06	1650.66
506.26	1587.18
506.46	1665.00
506.67	1587.18
506.87	1669.09
507.07	1593.32
507.28	1617.90
507.48	1681.38
507.68	1640.42
507.89	1689.57
508.09	1603.56
508.29	1640.42
508.50	1650.66
508.70	1753.06
508.90	1613.80
509.11	1726.44
509.31	1720.29
509.51	1562.60
509.72	1656.81
509.92	1636.33
510.12	1607.66
510.32	1718.25
510.53	1595.37
510.73	1665.00
510.93	1595.37
511.14	1578.98
511.34	1681.38
511.54	1654.76
511.75	1662.95
511.95	1591.27
512.15	1621.99
512.36	1738.73
512.56	1595.37
512.76	1654.76
512.96	1699.81
513.17	1697.77
513.37	1626.09
513.57	1648.61
513.78	1624.04
513.98	1628.14
514.18	1607.66
514.38	1583.08
514.59	1630.18
514.79	1554.41
514.99	1621.99
515.20	1546.22
515.40	1621.99
515.60	1646.57
515.80	1607.66
516.01	1607.66
516.21	1685.48
516.41	1660.90
516.62	1615.85
516.82	1658.85
517.02	1644.52
517.22	1689.57
517.43	1673.19
517.63	1628.14
517.83	1535.98
518.04	1673.19
518.24	1574.89
518.44	1615.85
518.64	1591.27
518.85	1662.95
519.05	1525.74
519.25	1634.28
519.45	1669.09
519.66	1638.38
519.86	1611.75
520.06	1628.14
520.26	1660.90
520.47	1654.76
520.67	1652.71
520.87	1640.42
521.08	1607.66
521.28	1581.03
521.48	1751.01
521.68	1599.46
521.89	1708.01
522.09	1679.33
522.29	1681.38
522.49	1593.32
522.70	1665.00
522.90	1714.15
523.10	1607.66
523.30	1660.90
523.51	1603.56
523.71	1621.99
523.91	1636.33
524.11	1710.05
524.31	1646.57
524.52	1638.38
524.72	1591.27
524.92	1654.76
525.12	1728.49
525.33	1644.52
525.53	1669.09
525.73	1671.14
525.93	1636.33
526.14	1605.61
526.34	1662.95
526.54	1607.66
526.74	1640.42
526.95	1681.38
527.15	1613.80
527.35	1677.29
527.55	1646.57
527.75	1595.37
527.96	1632.23
528.16	1607.66
528.36	1628.14
528.56	1556.46
528.77	1648.61
528.97	1554.41
529.17	1591.27
529.37	1595.37
529.57	1691.62
529.78	1617.90
529.98	1660.90
530.18	1699.81
530.38	1669.09
530.58	1636.33
530.79	1677.29
530.99	1570.79
531.19	1599.46
531.39	1587.18
531.59	1650.66
531.80	1687.53
532.00	1658.85
532.20	1630.18
532.40	1615.85
532.60	1591.27
532.81	1636.33
533.01	1564.65
533.21	1540.07
533.41	1621.99
533.61	1630.18
533.82	1652.71
534.02	1630.18
534.22	1665.00
534.42	1669.09
534.62	1734.63
534.83	1603.56
535.03	1658.85
535.23	1603.56
535.43	1699.81
535.63	1605.61
535.83	1720.29
536.04	1687.53
536.24	1695.72
536.44	1607.66
536.64	1611.75
536.84	1613.80
537.05	1685.48
537.25	1705.96
537.45	1693.67
537.65	1613.80
537.85	1636.33
538.05	1673.19
538.26	1689.57
538.46	1662.95
538.66	1654.76
538.86	1593.32
539.06	1671.14
539.26	1644.52
539.47	1689.57
539.67	1603.56
539.87	1667.05
540.07	1679.33
540.27	1726.44
540.47	1677.29
540.68	1685.48
540.88	1673.19
541.08	1703.91
541.28	1744.87
541.48	1701.86
541.68	1617.90
541.88	1728.49
542.09	1644.52
542.29	1679.33
542.49	1701.86
542.69	1748.97
542.89	1654.76
543.09	1740.77
543.29	1673.19
543.50	1775.59
543.70	1652.71
543.90	1689.57
544.10	1708.01
544.30	1710.05
544.50	1648.61
544.70	1638.38
544.91	1718.25
545.11	1613.80
545.31	1681.38
545.51	1712.10
545.71	1742.82
545.91	1783.78
546.11	1751.01
546.31	1691.62
546.52	1685.48
546.72	1681.38
546.92	1658.85
547.12	1748.97
547.32	1687.53
547.52	1568.74
547.72	1621.99
547.92	1648.61
548.13	1640.42
548.33	1648.61
548.53	1619.94
548.73	1615.85
548.93	1726.44
549.13	1671.14
549.33	1583.08
549.53	1656.81
549.73	1683.43
549.94	1714.15
550.14	1763.30
550.34	1613.80
550.54	1658.85
550.74	1687.53
550.94	1703.91
551.14	1708.01
551.34	1624.04
551.54	1730.53
551.74	1685.48
551.95	1693.67
552.15	1724.39
552.35	1714.15
552.55	1626.09
552.75	1689.57
552.95	1701.86
553.15	1673.19
553.35	1677.29
553.55	1648.61
553.75	1718.25
553.95	1746.92
554.16	1644.52
554.36	1697.77
554.56	1671.14
554.76	1681.38
554.96	1679.33
555.16	1660.90
555.36	1751.01
555.56	1726.44
555.76	1597.42
555.96	1734.63
556.16	1613.80
556.36	1728.49
556.57	1654.76
556.77	1689.57
556.97	1744.87
557.17	1640.42
557.37	1611.75
557.57	1681.38
557.77	1619.94
557.97	1597.42
558.17	1697.77
558.37	1611.75
558.57	1683.43
558.77	1691.62
558.97	1720.29
559.17	1595.37
559.37	1634.28
559.57	1613.80
559.78	1638.38
559.98	1626.09
560.18	1695.72
560.38	1662.95
560.58	1753.06
560.78	1755.11
560.98	1656.81
561.18	1746.92
561.38	1621.99
561.58	1730.53
561.78	1656.81
561.98	1671.14
562.18	1695.72
562.38	1677.29
562.58	1685.48
562.78	1726.44
562.98	1679.33
563.18	1718.25
563.38	1619.94
563.58	1671.14
563.78	1628.14
563.98	1662.95
564.18	1619.94
564.38	1683.43
564.58	1628.14
564.79	1697.77
564.99	1603.56
565.19	1753.06
565.39	1669.09
565.59	1726.44
565.79	1634.28
565.99	1708.01
566.19	1638.38
566.39	1654.76
566.59	1689.57
566.79	1646.57
566.99	1687.53
567.19	1660.90
567.39	1593.32
567.59	1710.05
567.79	1728.49
567.99	1640.42
568.19	1746.92
568.39	1691.62
568.59	1689.57
568.79	1656.81
568.99	1675.24
569.19	1681.38
569.39	1695.72
569.59	1665.00
569.79	1636.33
569.99	1669.09
570.19	1660.90
570.39	1697.77
570.59	1693.67
570.79	1720.29
570.99	1683.43
571.19	1568.74
571.39	1726.44
571.59	1689.57
571.79	1624.04
571.99	1740.77
572.19	1632.23
572.39	1722.34
572.59	1656.81
572.79	1624.04
572.99	1679.33
573.19	1628.14
573.39	1710.05
573.59	1636.33
573.79	1562.60
573.99	1619.94
574.19	1710.05
574.38	1662.95
574.58	1712.10
574.78	1748.97
574.98	1712.10
575.18	1605.61
575.38	1679.33
575.58	1677.29
575.78	1751.01
575.98	1669.09
576.18	1646.57
576.38	1677.29
576.58	1640.42
576.78	1669.09
576.98	1726.44
577.18	1677.29
577.38	1613.80
577.58	1685.48
577.78	1597.42
577.98	1673.19
578.18	1736.68
578.38	1695.72
578.58	1570.79
578.78	1734.63
578.98	1710.05
579.18	1585.13
579.37	1726.44
579.57	1681.38
579.77	1701.86
579.97	1617.90
580.17	1656.81
580.37	1652.71
580.57	1708.01
580.77	1740.77
580.97	2103.26
581.17	1628.14
581.37	1673.19
581.57	1724.39
581.77	1619.94
581.97	1685.48
582.17	1634.28
582.37	1699.81
582.56	1675.24
582.76	1644.52
582.96	1683.43
583.16	1669.09
583.36	1708.01
583.56	1701.86
583.76	1591.27
583.96	1615.85
584.16	1734.63
584.36	1695.72
584.56	1708.01
584.76	1755.11
584.95	1710.05
585.15	1689.57
585.35	1720.29
585.55	1665.00
585.75	1693.67
585.95	1748.97
586.15	1683.43
586.35	1699.81
586.55	1687.53
586.75	1656.81
586.95	1652.71
587.14	1640.42
587.34	1677.29
587.54	1701.86
587.74	1695.72
587.94	1593.32
588.14	1759.21
588.34	1753.06
588.54	1712.10
588.74	1658.85
588.94	1732.58
589.13	1718.25
589.33	1691.62
589.53	1751.01
589.73	1677.29
589.93	1773.54
590.13	1648.61
590.33	1671.14
590.53	1689.57
590.72	1746.92
590.92	1744.87
591.12	1716.20
591.32	1644.52
591.52	1753.06
591.72	1636.33
591.92	1718.25
592.12	1660.90
592.32	1677.29
592.51	1669.09
592.71	1736.68
592.91	1681.38
593.11	1697.77
593.31	1605.61
593.51	1681.38
593.71	1720.29
593.90	1708.01
594.10	1660.90
594.30	1763.30
594.50	1763.30
594.70	1640.42
594.90	1650.66
595.10	1718.25
595.29	1765.35
595.49	1687.53
595.69	1712.10
595.89	1701.86
596.09	1746.92
596.29	1783.78
596.49	1628.14
596.68	1718.25
596.88	1701.86
597.08	1728.49
597.28	1681.38
597.48	1759.21
597.68	1652.71
597.87	1705.96
598.07	1742.82
598.27	1701.86
598.47	1759.21
598.67	1720.29
598.87	1736.68
599.06	1718.25
599.26	1693.67
599.46	1812.45
599.66	1665.00
599.86	1691.62
600.06	1748.97
600.25	1734.63
600.45	1693.67
600.65	1699.81
600.85	1742.82
601.05	1685.48
601.25	1697.77
601.44	1722.34
601.64	1705.96
601.84	1849.32
602.04	1646.57
602.24	1697.77
602.43	1699.81
602.63	1722.34
602.83	1685.48
603.03	1705.96
603.23	1640.42
603.42	1730.53
603.62	1630.18
603.82	1665.00
604.02	1687.53
604.22	1734.63
604.42	1628.14
604.61	1726.44
604.81	1767.40
605.01	1701.86
605.21	2084.83
605.40	1648.61
605.60	1712.10
605.80	1656.81
606.00	1695.72
606.20	1603.56
606.39	1810.40
606.59	1693.67
606.79	1685.48
606.99	1665.00
607.19	1671.14
607.38	1730.53
607.58	1701.86
607.78	1669.09
607.98	1640.42
608.18	1687.53
608.37	1742.82
608.57	1648.61
608.77	1818.60
608.97	1759.21
609.16	1705.96
609.36	1794.02
609.56	1767.40
609.76	1746.92
609.95	1691.62
610.15	1808.36
610.35	1769.44
610.55	1697.77
610.75	1611.75
610.94	1734.63
611.14	1791.97
611.34	1820.64
611.54	1769.44
611.73	1857.51
611.93	1703.91
612.13	1787.88
612.33	1726.44
612.52	1722.34
612.72	1714.15
612.92	1761.25
613.12	1767.40
613.31	1775.59
613.51	1781.73
613.71	1744.87
613.91	1744.87
614.10	1701.86
614.30	1751.01
614.50	1800.16
614.70	1679.33
614.89	1697.77
615.09	1701.86
615.29	1738.73
615.49	1710.05
615.68	1742.82
615.88	1738.73
616.08	1738.73
616.27	1712.10
616.47	1708.01
616.67	1708.01
616.87	1660.90
617.06	1705.96
617.26	1695.72
617.46	1744.87
617.66	1679.33
617.85	1785.83
618.05	1703.91
618.25	1736.68
618.44	1742.82
618.64	1660.90
618.84	1726.44
619.04	1775.59
619.23	1734.63
619.43	1619.94
619.63	1681.38
619.82	1652.71
620.02	1708.01
620.22	1632.23
620.42	1703.91
620.61	1673.19
620.81	1716.20
621.01	1710.05
621.20	1742.82
621.40	1693.67
621.60	1689.57
621.79	1716.20
621.99	1685.48
622.19	1695.72
622.39	1773.54
622.58	1814.50
622.78	1722.34
622.98	1703.91
623.17	1767.40
623.37	1980.39
623.57	1753.06
623.76	1728.49
623.96	1791.97
624.16	1697.77
624.35	1748.97
624.55	1660.90
624.75	1787.88
624.94	1665.00
625.14	1693.67
625.34	1761.25
625.53	1730.53
625.73	1746.92
625.93	1742.82
626.12	1728.49
626.32	1720.29
626.52	1687.53
626.71	1687.53
626.91	1761.25
627.11	1728.49
627.30	1644.52
627.50	1710.05
627.70	1753.06
627.89	1673.19
628.09	1630.18
628.29	1738.73
628.48	1744.87
628.68	1742.82
628.88	1736.68
629.07	1757.16
629.27	1726.44
629.47	1734.63
629.66	1716.20
629.86	1681.38
630.06	1755.11
630.25	1759.21
630.45	1742.82
630.65	1742.82
630.84	1726.44
631.04	1730.53
631.24	1654.76
631.43	1681.38
631.63	1755.11
631.82	1693.67
632.02	1763.30
632.22	1841.12
632.41	1679.33
632.61	1769.44
632.81	1763.30
633.00	1671.14
633.20	1687.53
633.39	1732.58
633.59	1710.05
633.79	1675.24
633.98	1669.09
634.18	1665.00
634.38	1726.44
634.57	1734.63
634.77	1810.40
634.96	1660.90
635.16	1726.44
635.36	1644.52
635.55	1751.01
635.75	1818.60
635.95	1736.68
636.14	1884.13
636.34	1748.97
636.53	1656.81
636.73	1644.52
636.93	1669.09
637.12	1744.87
637.32	1728.49
637.51	1685.48
637.71	1716.20
637.91	1673.19
638.10	1722.34
638.30	1646.57
638.49	1742.82
638.69	1794.02
638.89	1673.19
639.08	1740.77
639.28	1753.06
639.47	1650.66
639.67	1771.49
639.86	1742.82
640.06	1781.73
640.26	1716.20
640.45	1753.06
640.65	1699.81
640.84	1701.86
641.04	1736.68
641.24	1687.53
641.43	1771.49
641.63	1662.95
641.82	1810.40
642.02	1710.05
642.21	1695.72
642.41	1751.01
642.61	1685.48
642.80	1777.64
643.00	1732.58
643.19	1808.36
643.39	1679.33
643.58	1687.53
643.78	1703.91
643.97	1617.90
644.17	1841.12
644.37	1683.43
644.56	1667.05
644.76	1736.68
644.95	1734.63
645.15	1736.68
645.34	1650.66
645.54	1753.06
645.73	1753.06
645.93	1734.63
646.13	1669.09
646.32	1640.42
646.52	1683.43
646.71	1679.33
646.91	1781.73
647.10	1757.16
647.30	1701.86
647.49	1738.73
647.69	1679.33
647.88	1787.88
648.08	1720.29
648.28	1703.91
648.47	1691.62
648.67	1703.91
648.86	1763.30
649.06	1863.65
649.25	1650.66
649.45	1779.68
649.64	1667.05
649.84	1773.54
650.03	1722.34
650.23	1705.96
650.42	1718.25
650.62	1753.06
650.81	1708.01
651.01	1660.90
651.20	1761.25
651.40	1746.92
651.59	1777.64
651.79	1681.38
651.98	1736.68
652.18	1724.39
652.37	1765.35
652.57	1839.08
652.76	1787.88
652.96	1656.81
653.15	1693.67
653.35	1716.20
653.54	1710.05
653.74	1705.96
653.93	1732.58
654.13	1767.40
654.32	1744.87
654.52	1691.62
654.71	1744.87
654.91	1775.59
655.10	1808.36
655.30	1759.21
655.49	1738.73
655.69	1691.62
655.88	1720.29
656.08	1693.67
656.27	1787.88
656.47	1761.25
656.66	1718.25
656.86	1810.40
657.05	1726.44
657.25	1644.52
657.44	1751.01
657.64	1724.39
657.83	1861.60
658.03	1640.42
658.22	1769.44
658.42	1751.01
658.61	1662.95
658.80	1718.25
659.00	1716.20
659.19	1730.53
659.39	1630.18
659.58	1695.72
659.78	1742.82
659.97	1832.93
660.17	1769.44
660.36	1710.05
660.56	1673.19
660.75	1789.92
660.95	1771.49
661.14	1693.67
661.33	1724.39
661.53	1734.63
661.72	1693.67
661.92	1728.49
662.11	1726.44
662.31	1644.52
662.50	1771.49
662.70	1619.94
662.89	1695.72
663.08	1757.16
663.28	1800.16
663.47	1712.10
663.67	1712.10
663.86	1744.87
664.06	1720.29
664.25	1732.58
664.44	1720.29
664.64	1695.72
664.83	1677.29
665.03	1759.21
665.22	1779.68
665.42	1722.34
665.61	1832.93
665.80	1710.05
666.00	1675.24
666.19	1738.73
666.39	1744.87
666.58	1826.79
666.77	1695.72
666.97	1744.87
667.16	1740.77
667.36	1703.91
667.55	1705.96
667.75	1718.25
667.94	1714.15
668.13	1755.11
668.33	1826.79
668.52	1789.92
668.72	1650.66
668.91	1687.53
669.10	1701.86
669.30	1751.01
669.49	1802.21
669.69	1832.93
669.88	1734.63
670.07	1744.87
670.27	1726.44
670.46	1751.01
670.66	1728.49
670.85	1726.44
671.04	1699.81
671.24	1736.68
671.43	1791.97
671.62	1728.49
671.82	1796.07
672.01	1718.25
672.21	1693.67
672.40	1746.92
672.59	1722.34
672.79	1724.39
672.98	1685.48
673.17	1722.34
673.37	1726.44
673.56	1703.91
673.76	1757.16
673.95	1736.68
674.14	1710.05
674.34	1798.12
674.53	1746.92
674.72	1730.53
674.92	1736.68
675.11	1818.60
675.30	1738.73
675.50	1705.96
675.69	1656.81
675.89	1763.30
676.08	1814.50
676.27	1785.83
676.47	1650.66
676.66	1744.87
676.85	1716.20
677.05	1761.25
677.24	1771.49
677.43	1734.63
677.63	1673.19
677.82	1726.44
678.01	1804.26
678.21	1757.16
678.40	1738.73
678.59	1802.21
678.79	1685.48
678.98	1679.33
679.17	1787.88
679.37	1669.09
679.56	1693.67
679.75	1751.01
679.95	1703.91
680.14	1767.40
680.33	1689.57
680.53	1794.02
680.72	1724.39
680.91	1730.53
681.11	1787.88
681.30	1681.38
681.49	1699.81
681.69	1710.05
681.88	1783.78
682.07	1687.53
682.26	1791.97
682.46	1814.50
682.65	1794.02
682.84	1726.44
683.04	1703.91
683.23	1779.68
683.42	1675.24
683.62	1740.77
683.81	1759.21
684.00	1849.32
684.20	1744.87
684.39	1687.53
684.58	1689.57
684.77	1691.62
684.97	1660.90
685.16	1654.76
685.35	1732.58
685.55	1718.25
685.74	1718.25
685.93	1781.73
686.12	1712.10
686.32	1740.77
686.51	1746.92
686.70	1740.77
686.90	1701.86
687.09	1769.44
687.28	1736.68
687.47	1830.88
687.67	1818.60
687.86	1697.77
688.05	1658.85
688.25	1742.82
688.44	1671.14
688.63	1773.54
688.82	1644.52
689.02	1736.68
689.21	1808.36
689.40	1728.49
689.59	1669.09
689.79	1703.91
689.98	1724.39
690.17	1759.21
690.36	1765.35
690.56	1755.11
690.75	1773.54
690.94	1812.45
691.13	1757.16
691.33	1708.01
691.52	1654.76
691.71	1767.40
691.90	1718.25
692.10	1720.29
692.29	1728.49
692.48	1832.93
692.67	1624.04
692.87	1693.67
693.06	1683.43
693.25	1746.92
693.44	1730.53
693.64	1675.24
693.83	1665.00
694.02	1757.16
694.21	1691.62
694.40	1728.49
694.60	1681.38
694.79	1687.53
694.98	1730.53
695.17	1832.93
695.37	1695.72
695.56	1679.33
695.75	1744.87
695.94	1701.86
696.13	1689.57
696.33	1660.90
696.52	1697.77
696.71	1759.21
696.90	1720.29
697.10	1767.40
697.29	1718.25
697.48	1796.07
697.67	1738.73
697.86	1662.95
698.06	1615.85
698.25	1761.25
698.44	1736.68
698.63	1738.73
698.82	1732.58
699.02	1703.91
699.21	1669.09
699.40	1800.16
699.59	1718.25
699.78	1689.57
699.98	1779.68
700.17	1744.87
700.36	1769.44
700.55	1738.73
700.74	1765.35
700.93	1753.06
701.13	1714.15
701.32	1738.73
701.51	1800.16
701.70	1701.86
701.89	1748.97
702.09	1697.77
702.28	1796.07
702.47	1705.96
702.66	1662.95
702.85	1699.81
703.04	1644.52
703.24	1769.44
703.43	1740.77
703.62	1802.21
703.81	1691.62
704.00	1839.08
704.19	1740.77
704.39	1748.97
704.58	1779.68
704.77	1693.67
704.96	1736.68
705.15	1798.12
705.34	1787.88
705.54	1695.72
705.73	1714.15
705.92	1722.34
706.11	1753.06
706.30	1763.30
706.49	1742.82
706.68	1630.18
706.88	1796.07
707.07	1746.92
707.26	1767.40
707.45	1724.39
707.64	1769.44
707.83	1769.44
708.02	1712.10
708.22	1779.68
708.41	1759.21
708.60	1767.40
708.79	1783.78
708.98	1785.83
709.17	1851.36
709.36	1783.78
709.55	1718.25
709.75	1751.01
709.94	1697.77
710.13	1697.77
710.32	1716.20
710.51	1820.64
710.70	1710.05
710.89	1736.68
711.08	1751.01
711.27	1736.68
711.47	1759.21
711.66	1705.96
711.85	1714.15
712.04	1755.11
712.23	1783.78
712.42	1761.25
712.61	1718.25
712.80	1660.90
712.99	1746.92
713.19	1667.05
713.38	1708.01
713.57	1683.43
713.76	1714.15
713.95	1685.48
714.14	1693.67
714.33	1730.53
714.52	1794.02
714.71	1742.82
714.90	1785.83
715.09	1763.30
715.28	1718.25
715.48	1884.13
715.67	1767.40
715.86	1701.86
716.05	1658.85
716.24	1708.01
716.43	1685.48
716.62	1763.30
716.81	1699.81
717.00	1869.80
717.19	1771.49
717.38	1701.86
717.57	1736.68
717.76	1734.63
717.96	1781.73
718.15	1765.35
718.34	1724.39
718.53	1732.58
718.72	1765.35
718.91	1681.38
719.10	1703.91
719.29	1761.25
719.48	1771.49
719.67	1857.51
719.86	1818.60
720.05	1763.30
720.24	1736.68
720.43	1763.30
720.62	1738.73
720.81	1730.53
721.00	1640.42
721.19	1736.68
721.38	1765.35
721.57	1695.72
721.77	1884.13
721.96	1697.77
722.15	1759.21
722.34	1710.05
722.53	1718.25
722.72	1730.53
722.91	1802.21
723.10	1730.53
723.29	1665.00
723.48	1759.21
723.67	1802.21
723.86	1775.59
724.05	1681.38
724.24	1753.06
724.43	1757.16
724.62	1724.39
724.81	1642.47
725.00	1730.53
725.19	1681.38
725.38	1787.88
725.57	1718.25
725.76	1718.25
725.95	1720.29
726.14	1794.02
726.33	1738.73
726.52	1775.59
726.71	1710.05
726.90	1753.06
727.09	1751.01
727.28	1667.05
727.47	1681.38
727.66	1716.20
727.85	1687.53
728.04	1695.72
728.23	1712.10
728.42	1796.07
728.61	1726.44
728.80	1753.06
728.99	1677.29
729.18	1796.07
729.37	1740.77
729.56	1736.68
729.75	1716.20
729.94	1708.01
730.13	1769.44
730.32	1689.57
730.51	1712.10
730.70	1658.85
730.89	1685.48
731.08	1816.55
731.27	1648.61
731.46	1761.25
731.65	1753.06
731.84	1730.53
732.03	1722.34
732.21	1730.53
732.40	1705.96
732.59	1812.45
732.78	1720.29
732.97	1718.25
733.16	1693.67
733.35	1646.57
733.54	1742.82
733.73	1746.92
733.92	1744.87
734.11	1724.39
734.30	1687.53
734.49	1726.44
734.68	1703.91
734.87	1681.38
735.06	1779.68
735.25	1669.09
735.44	1744.87
735.63	1685.48
735.81	1794.02
736.00	1841.12
736.19	1730.53
736.38	1777.64
736.57	1753.06
736.76	1718.25
736.95	1742.82
737.14	1630.18
737.33	1681.38
737.52	1712.10
737.71	1714.15
737.90	1708.01
738.09	1787.88
738.28	1720.29
738.46	1701.86
738.65	1730.53
738.84	1785.83
739.03	1697.77
739.22	1708.01
739.41	1849.32
739.60	1734.63
739.79	1722.34
739.98	1658.85
740.17	1726.44
740.36	1693.67
740.54	1736.68
740.73	1757.16
740.92	1685.48
741.11	1718.25
741.30	1761.25
741.49	1679.33
741.68	1728.49
741.87	1791.97
742.06	1789.92
742.24	1710.05
742.43	1740.77
742.62	1730.53
742.81	1718.25
743.00	1849.32
743.19	1693.67
743.38	1730.53
743.57	1798.12
743.76	1726.44
743.94	1849.32
744.13	1775.59
744.32	1728.49
744.51	1650.66
744.70	1695.72
744.89	1781.73
745.08	1740.77
745.26	1693.67
745.45	1769.44
745.64	1710.05
745.83	1742.82
746.02	1777.64
746.21	1646.57
746.40	1734.63
746.58	1755.11
746.77	1751.01
746.96	1624.04
747.15	1701.86
747.34	1783.78
747.53	1763.30
747.72	1734.63
747.90	1697.77
748.09	1689.57
748.28	1759.21
748.47	1716.20
748.66	1630.18
748.85	1728.49
749.03	1613.80
749.22	1748.97
749.41	1738.73
749.60	1679.33
749.79	1705.96
749.98	1806.31
750.16	1742.82
750.35	1744.87
750.54	1746.92
750.73	1640.42
750.92	1736.68
751.11	1761.25
751.29	1667.05
751.48	1751.01
751.67	1742.82
751.86	1763.30
752.05	1701.86
752.24	1734.63
752.42	1662.95
752.61	1703.91
752.80	1648.61
752.99	1667.05
753.18	1722.34
753.36	1796.07
753.55	1828.84
753.74	1767.40
753.93	1726.44
754.12	1691.62
754.30	1771.49
754.49	1773.54
754.68	1775.59
754.87	1783.78
755.06	1601.51
755.24	1716.20
755.43	1681.38
755.62	1740.77
755.81	1722.34
755.99	1679.33
756.18	1832.93
756.37	1712.10
756.56	1718.25
756.75	1763.30
756.93	1648.61
757.12	1718.25
757.31	1714.15
757.50	1734.63
757.68	1726.44
757.87	1759.21
758.06	1763.30
758.25	1767.40
758.44	1669.09
758.62	1722.34
758.81	1755.11
759.00	1767.40
759.19	1621.99
759.37	1732.58
759.56	1710.05
759.75	1701.86
759.94	1669.09
760.12	1740.77
760.31	1691.62
760.50	1703.91
760.69	1738.73
760.87	1669.09
761.06	1785.83
761.25	1697.77
761.44	1699.81
761.62	1724.39
761.81	1595.37
762.00	1669.09
762.19	1820.64
762.37	1685.48
762.56	1673.19
762.75	1742.82
762.94	1644.52
763.12	1722.34
763.31	1761.25
763.50	1744.87
763.68	1828.84
763.87	1660.90
764.06	1736.68
764.25	1683.43
764.43	1742.82
764.62	1710.05
764.81	1748.97
764.99	1632.23
765.18	1722.34
765.37	1689.57
765.56	1775.59
765.74	1724.39
765.93	1726.44
766.12	1710.05
766.30	1728.49
766.49	1785.83
766.68	1703.91
766.87	1738.73
767.05	1775.59
767.24	1736.68
767.43	1791.97
767.61	1716.20
767.80	1742.82
767.99	1726.44
768.17	1757.16
768.36	1732.58
768.55	1775.59
768.73	1761.25
768.92	1677.29
769.11	1710.05
769.30	1669.09
769.48	1695.72
769.67	1734.63
769.86	1734.63
770.04	1658.85
770.23	1673.19
770.42	1646.57
770.60	1720.29
770.79	1714.15
770.98	1726.44
771.16	1669.09
771.35	1765.35
771.54	1736.68
771.72	1742.82
771.91	1695.72
772.10	1677.29
772.28	1746.92
772.47	1742.82
772.66	1781.73
772.84	1689.57
773.03	1722.34
773.22	1753.06
773.40	1744.87
773.59	1699.81
773.77	1665.00
773.96	1751.01
774.15	1740.77
774.33	1746.92
774.52	1773.54
774.71	1654.76
774.89	1587.18
775.08	1726.44
775.27	1775.59
775.45	1683.43
775.64	1701.86
775.83	1744.87
776.01	1726.44
776.20	1720.29
776.38	1710.05
776.57	1656.81
776.76	1720.29
776.94	1806.31
777.13	1826.79
777.32	1701.86
777.50	1636.33
777.69	1671.14
777.87	1734.63
778.06	1677.29
778.25	1665.00
778.43	1722.34
778.62	1728.49
778.80	1746.92
778.99	1718.25
779.18	1730.53
779.36	1658.85
779.55	1703.91
779.73	1671.14
779.92	1736.68
780.11	1667.05
780.29	1697.77
780.48	1714.15
780.66	1703.91
780.85	1669.09
781.04	1726.44
781.22	1761.25
781.41	1705.96
781.59	1677.29
781.78	1703.91
781.97	1769.44
782.15	1718.25
782.34	1662.95
782.52	1705.96
782.71	1705.96
782.89	1808.36
783.08	1712.10
783.27	1722.34
783.45	1656.81
783.64	1779.68
783.82	1738.73
784.01	1716.20
784.19	1628.14
784.38	1736.68
784.57	1716.20
784.75	1703.91
784.94	1734.63
785.12	1751.01
785.31	1695.72
785.49	1679.33
785.68	1662.95
785.86	1636.33
786.05	1607.66
786.24	1722.34
786.42	1689.57
786.61	1677.29
786.79	1662.95
786.98	1683.43
787.16	1712.10
787.35	1812.45
787.53	1703.91
787.72	1601.51
787.90	1681.38
788.09	1742.82
788.28	1734.63
788.46	1669.09
788.65	1712.10
788.83	1767.40
789.02	1656.81
789.20	1759.21
789.39	1736.68
789.57	1630.18
789.76	1710.05
789.94	1748.97
790.13	1687.53
790.31	1695.72
790.50	1658.85
790.68	1798.12
790.87	1716.20
791.05	1751.01
791.24	1728.49
791.42	1746.92
791.61	1712.10
791.79	1673.19
791.98	1660.90
792.16	1748.97
792.35	1654.76
792.53	1787.88
792.72	1705.96
792.90	1671.14
793.09	1679.33
793.27	1595.37
793.46	1705.96
793.64	1728.49
793.83	1665.00
794.01	1740.77
794.20	1681.38
794.38	1693.67
794.57	1777.64
794.75	1734.63
794.94	1658.85
795.12	1726.44
795.31	1728.49
795.49	1632.23
795.68	1761.25
795.86	1765.35
796.05	1624.04
796.23	1767.40
796.42	1714.15
796.60	1624.04
796.78	1640.42
796.97	1726.44
797.15	1644.52
797.34	1640.42
797.52	1654.76
797.71	1740.77
797.89	1718.25
798.08	1628.14
798.26	1619.94
798.45	1787.88
798.63	1740.77
798.81	1671.14
799.00	1660.90
799.18	1636.33
799.37	1662.95
799.55	1671.14
799.74	1726.44
799.92	1701.86
800.11	1712.10
800.29	1656.81
800.47	1708.01
800.66	1714.15
800.84	1753.06
801.03	1689.57
801.21	1728.49
801.40	1644.52
801.58	1710.05
801.76	1771.49
801.95	1732.58
802.13	1775.59
802.32	1665.00
802.50	1662.95
802.69	1570.79
802.87	1722.34
803.05	1697.77
803.24	1722.34
803.42	1689.57
803.61	1769.44
803.79	1681.38
803.97	1652.71
804.16	1683.43
804.34	1687.53
804.53	1677.29
804.71	1685.48
804.89	1710.05
805.08	1689.57
805.26	1693.67
805.45	1679.33
805.63	1697.77
805.81	1578.98
806.00	1718.25
806.18	1720.29
806.37	1787.88
806.55	1710.05
806.73	1654.76
806.92	1843.17
807.10	1753.06
807.28	1669.09
807.47	1681.38
807.65	1679.33
807.84	1660.90
808.02	1628.14
808.20	1578.98
808.39	1753.06
808.57	1699.81
808.75	1701.86
808.94	1630.18
809.12	1619.94
809.31	1695.72
809.49	1603.56
809.67	1722.34
809.86	1718.25
810.04	1712.10
810.22	1748.97
810.41	1660.90
810.59	1699.81
810.77	1677.29
810.96	1669.09
811.14	1794.02
811.32	1773.54
811.51	1785.83
811.69	1619.94
811.87	1761.25
812.06	1652.71
812.24	1595.37
812.42	1775.59
812.61	1685.48
812.79	1656.81
812.97	1687.53
813.16	1759.21
813.34	1783.78
813.52	1671.14
813.71	1634.28
813.89	1636.33
814.07	1660.90
814.26	1751.01
814.44	1775.59
814.62	1691.62
814.81	1716.20
814.99	1628.14
815.17	2090.98
815.36	1720.29
815.54	1705.96
815.72	1603.56
815.91	1570.79
816.09	1605.61
816.27	1687.53
816.45	1687.53
816.64	1677.29
816.82	1609.70
817.00	1810.40
817.19	1652.71
817.37	1615.85
817.55	1648.61
817.74	1628.14
817.92	1699.81
818.10	1630.18
818.28	1601.51
818.47	1685.48
818.65	1687.53
818.83	1722.34
819.02	1705.96
819.20	1677.29
819.38	1587.18
819.56	1683.43
819.75	1726.44
819.93	1710.05
820.11	1669.09
820.29	1699.81
820.48	1705.96
820.66	1718.25
820.84	1714.15
821.03	1751.01
821.21	1669.09
821.39	1767.40
821.57	1662.95
821.76	1605.61
821.94	1732.58
822.12	1685.48
822.30	1636.33
822.49	1712.10
822.67	1730.53
822.85	1595.37
823.03	1662.95
823.22	1581.03
823.40	1595.37
823.58	1621.99
823.76	1693.67
823.95	1685.48
824.13	1714.15
824.31	1703.91
824.49	1595.37
824.68	1687.53
824.86	1675.24
825.04	1705.96
825.22	1736.68
825.40	1644.52
825.59	1624.04
825.77	1714.15
825.95	1734.63
826.13	1677.29
826.32	1595.37
826.50	1738.73
826.68	1708.01
826.86	1605.61
827.04	1681.38
827.23	1718.25
827.41	1681.38
827.59	1705.96
827.77	1726.44
827.95	1699.81
828.14	1726.44
828.32	1542.12
828.50	1726.44
828.68	1665.00
828.86	1665.00
829.05	1621.99
829.23	1669.09
829.41	1640.42
829.59	1712.10
829.77	1718.25
829.96	1660.90
830.14	1654.76
830.32	1578.98
830.50	1587.18
830.68	1640.42
830.87	1695.72
831.05	1751.01
831.23	1722.34
831.41	1677.29
831.59	1693.67
831.77	1703.91
831.96	1656.81
832.14	1687.53
832.32	1646.57
832.50	1701.86
832.68	1742.82
832.86	1671.14
833.05	1636.33
833.23	1607.66
833.41	1697.77
833.59	1665.00
833.77	1667.05
833.95	1697.77
834.14	1705.96
834.32	1687.53
834.50	1705.96
834.68	1712.10
834.86	1710.05
835.04	1679.33
835.22	1630.18
835.41	1621.99
835.59	1771.49
835.77	1681.38
835.95	1636.33
836.13	1671.14
836.31	1710.05
836.49	1605.61
836.67	1681.38
836.86	1687.53
837.04	1681.38
837.22	1630.18
837.40	1650.66
837.58	1574.89
837.76	1718.25
837.94	1581.03
838.12	1710.05
838.31	1697.77
838.49	1677.29
838.67	1687.53
838.85	1777.64
839.03	1660.90
839.21	1646.57
839.39	1671.14
839.57	1591.27
839.75	1677.29
839.94	1677.29
840.12	1755.11
840.30	1722.34
840.48	1652.71
840.66	1656.81
840.84	1562.60
841.02	1644.52
841.20	1718.25
841.38	1683.43
841.56	1693.67
841.74	1634.28
841.93	1777.64
842.11	1714.15
842.29	1767.40
842.47	1677.29
842.65	1705.96
842.83	1685.48
843.01	1630.18
843.19	1697.77
843.37	1652.71
843.55	1603.56
843.73	1746.92
843.91	1603.56
844.09	1736.68
844.28	1742.82
844.46	1705.96
844.64	1675.24
844.82	1636.33
845.00	1701.86
845.18	1624.04
845.36	1636.33
845.54	1652.71
845.72	1648.61
845.90	1634.28
846.08	1669.09
846.26	1677.29
846.44	1650.66
846.62	1656.81
846.80	1558.50
846.98	1589.22
847.16	1607.66
847.34	1634.28
847.52	1585.13
847.70	1675.24
847.88	1701.86
848.07	1681.38
848.25	1658.85
848.43	1791.97
848.61	1621.99
848.79	1710.05
848.97	1644.52
849.15	1621.99
849.33	1654.76
849.51	1595.37
849.69	1660.90
849.87	1638.38
850.05	1624.04
850.23	1601.51
850.41	1617.90
850.59	1665.00
850.77	1646.57
850.95	1652.71
851.13	1681.38
851.31	1640.42
851.49	1794.02
851.67	1679.33
851.85	1671.14
852.03	1701.86
852.21	1660.90
852.39	1652.71
852.57	1626.09
852.75	1742.82
852.93	1660.90
853.11	1589.22
853.29	1591.27
853.47	1726.44
853.65	1695.72
853.83	1669.09
854.01	1654.76
854.19	1689.57
854.37	1638.38
854.55	1697.77
854.73	1708.01
854.91	1669.09
855.08	1681.38
855.26	1681.38
855.44	1589.22
855.62	1646.57
855.80	1701.86
855.98	1665.00
856.16	1636.33
856.34	1736.68
856.52	1648.61
856.70	1603.56
856.88	1591.27
857.06	1685.48
857.24	1621.99
857.42	1658.85
857.60	1675.24
857.78	1669.09
857.96	1716.20
858.14	1722.34
858.32	1710.05
858.50	1675.24
858.68	1667.05
858.85	1607.66
859.03	1660.90
859.21	1697.77
859.39	1581.03
859.57	1626.09
859.75	1677.29
859.93	1628.14
860.11	1609.70
860.29	1667.05
860.47	1648.61
860.65	1740.77
860.83	1689.57
861.01	1673.19
861.18	1628.14
861.36	1675.24
861.54	1685.48
861.72	1693.67
861.90	1673.19
862.08	1740.77
862.26	1619.94
862.44	1587.18
862.62	1593.32
862.80	1759.21
862.98	1636.33
863.15	1550.31
863.33	1736.68
863.51	1650.66
863.69	1587.18
863.87	1708.01
864.05	1665.00
864.23	1603.56
864.41	1648.61
864.59	1591.27
864.76	1658.85
864.94	1644.52
865.12	1648.61
865.30	1603.56
865.48	1656.81
865.66	1574.89
865.84	1615.85
866.02	1662.95
866.19	1624.04
866.37	1628.14
866.55	1593.32
866.73	1611.75
866.91	1675.24
867.09	1742.82
867.27	1630.18
867.44	1636.33
867.62	1636.33
867.80	1613.80
867.98	1636.33
868.16	1628.14
868.34	1671.14
868.52	1646.57
868.69	1646.57
868.87	1640.42
869.05	1613.80
869.23	1630.18
869.41	1654.76
869.59	1681.38
869.76	1585.13
869.94	1687.53
870.12	1658.85
870.30	1701.86
870.48	1626.09
870.66	1658.85
870.83	1654.76
871.01	1615.85
871.19	1685.48
871.37	1687.53
871.55	1609.70
871.73	1589.22
871.90	1677.29
872.08	1689.57
872.26	1634.28
872.44	1660.90
872.62	1685.48
872.79	1671.14
872.97	1669.09
873.15	1652.71
873.33	1603.56
873.51	1681.38
873.68	1628.14
873.86	1693.67
874.04	1667.05
874.22	1734.63
874.40	1615.85
874.57	1685.48
874.75	1720.29
874.93	1646.57
875.11	1550.31
875.29	1755.11
875.46	1701.86
875.64	1689.57
875.82	1632.23
876.00	1710.05
876.17	1681.38
876.35	1619.94
876.53	1673.19
876.71	1609.70
876.89	1585.13
877.06	1755.11
877.24	1628.14
877.42	1789.92
877.60	1669.09
877.77	1675.24
877.95	1714.15
878.13	1730.53
878.31	1632.23
878.48	1720.29
878.66	1681.38
878.84	1728.49
879.02	1619.94
879.19	1705.96
879.37	1570.79
879.55	1554.41
879.73	1531.88
879.90	1693.67
880.08	1712.10
880.26	1691.62
880.44	1732.58
880.61	1705.96
880.79	1630.18
880.97	1613.80
881.15	1646.57
881.32	1591.27
881.50	1656.81
881.68	1683.43
881.85	1695.72
882.03	1771.49
882.21	1691.62
882.39	1646.57
882.56	1601.51
882.74	1679.33
882.92	1630.18
883.09	1662.95
883.27	1720.29
883.45	1621.99
883.63	1628.14
883.80	1681.38
883.98	1624.04
884.16	1677.29
884.33	1687.53
884.51	1595.37
884.69	1679.33
884.87	1593.32
885.04	1716.20
885.22	1769.44
885.40	1628.14
885.57	1628.14
885.75	1761.25
885.93	1630.18
886.10	1669.09
886.28	1595.37
886.46	1660.90
886.63	1624.04
886.81	1613.80
886.99	1734.63
887.16	1628.14
887.34	1605.61
887.52	1644.52
887.69	1638.38
887.87	1642.47
888.05	1697.77
888.22	1593.32
888.40	1554.41
888.58	1658.85
888.75	1601.51
888.93	1587.18
889.11	1611.75
889.28	1624.04
889.46	1589.22
889.64	1603.56
889.81	1626.09
889.99	1650.66
890.17	1656.81
890.34	1705.96
890.52	1648.61
890.70	1640.42
890.87	1695.72
891.05	1644.52
891.22	1650.66
891.40	1634.28
891.58	1726.44
891.75	1665.00
891.93	1691.62
892.11	1646.57
892.28	1540.07
892.46	1681.38
892.63	1632.23
892.81	1595.37
892.99	1669.09
893.16	1677.29
893.34	1609.70
893.52	1615.85
893.69	1636.33
893.87	1617.90
894.04	1675.24
894.22	1636.33
894.40	1693.67
894.57	1689.57
894.75	1605.61
894.92	1636.33
895.10	1638.38
895.28	1642.47
895.45	1660.90
895.63	1669.09
895.80	1574.89
895.98	1550.31
896.16	1578.98
896.33	1660.90
896.51	1570.79
896.68	1634.28
896.86	1642.47
897.04	1572.84
897.21	1677.29
897.39	1650.66
897.56	1542.12
897.74	1726.44
897.91	1667.05
898.09	1662.95
898.27	1695.72
898.44	1597.42
898.62	1617.90
898.79	1640.42
898.97	1738.73
899.14	1652.71
899.32	1671.14
899.49	1679.33
899.67	1734.63
899.85	1642.47
900.02	1615.85
900.20	1679.33
900.37	1634.28
900.55	1595.37
900.72	1558.50
900.90	1662.95
901.07	1621.99
901.25	1585.13
901.43	1648.61
901.60	1671.14
901.78	1673.19
901.95	1679.33
902.13	1611.75
902.30	1652.71
902.48	1603.56
902.65	1603.56
902.83	1675.24
903.00	1636.33
903.18	1599.46
903.35	1681.38
903.53	1689.57
903.70	1560.55
903.88	1662.95
904.05	1583.08
904.23	1744.87
904.40	1611.75
904.58	1611.75
904.75	1615.85
904.93	1683.43
905.10	1646.57
905.28	1738.73
905.45	1564.65
905.63	1714.15
905.80	1626.09
905.98	1648.61
906.15	1624.04
906.33	1593.32
906.50	1609.70
906.68	1652.71
906.85	1687.53
907.03	1658.85
907.20	1626.09
907.38	1603.56
907.55	1550.31
907.73	1652.71
907.90	1597.42
908.08	1642.47
908.25	1722.34
908.43	1546.22
908.60	1658.85
908.78	1703.91
908.95	1708.01
909.13	1638.38
909.30	1535.98
909.47	1630.18
909.65	1654.76
909.82	1619.94
910.00	1550.31
910.17	1662.95
910.35	1628.14
910.52	1652.71
910.70	1736.68
910.87	1632.23
911.05	1652.71
911.22	1556.46
911.39	1636.33
911.57	1669.09
911.74	1650.66
911.92	1673.19
912.09	1695.72
912.27	1695.72
912.44	1693.67
912.61	1587.18
912.79	1681.38
912.96	1589.22
913.14	1634.28
913.31	1621.99
913.49	1589.22
913.66	1636.33
913.83	1624.04
914.01	1619.94
914.18	1638.38
914.36	1648.61
914.53	1636.33
914.70	1605.61
914.88	1589.22
915.05	1714.15
915.23	1527.78
915.40	1673.19
915.58	1605.61
915.75	1624.04
915.92	1685.48
916.10	1710.05
916.27	1640.42
916.44	1638.38
916.62	1642.47
916.79	1632.23
916.97	1540.07
917.14	1662.95
917.31	1687.53
917.49	1583.08
917.66	1619.94
917.84	1693.67
918.01	1595.37
918.18	1677.29
918.36	1708.01
918.53	1607.66
918.70	1695.72
918.88	1679.33
919.05	1671.14
919.23	1654.76
919.40	1714.15
919.57	1619.94
919.75	1677.29
919.92	1566.70
920.09	1626.09
920.27	1683.43
920.44	1570.79
920.61	1671.14
920.79	1716.20
920.96	1677.29
921.13	1722.34
921.31	1662.95
921.48	1695.72
921.65	1611.75
921.83	1644.52
922.00	1636.33
922.17	1603.56
922.35	1648.61
922.52	1636.33
922.69	1646.57
922.87	1640.42
923.04	1587.18
923.21	1603.56
923.39	1726.44
923.56	1593.32
923.73	1695.72
923.91	1531.88
924.08	1628.14
924.25	1550.31
924.43	1640.42
924.60	1533.93
924.77	1617.90
924.95	1660.90
925.12	1591.27
925.29	1595.37
925.47	1630.18
925.64	1619.94
925.81	1630.18
925.98	1521.64
926.16	1652.71
926.33	1599.46
926.50	1583.08
926.68	1554.41
926.85	1652.71
927.02	1578.98
927.19	1597.42
927.37	1591.27
927.54	1531.88
927.71	1660.90
927.89	1595.37
928.06	1484.78
928.23	1695.72
928.40	1603.56
928.58	1578.98
928.75	1599.46
928.92	1615.85
929.09	1587.18
929.27	1611.75
929.44	1644.52
929.61	1640.42
929.79	1650.66
929.96	1669.09
930.13	1548.26
930.30	1662.95
930.48	1621.99
930.65	1581.03
930.82	1519.59
930.99	1650.66
931.17	1630.18
931.34	1628.14
931.51	1632.23
931.68	1570.79
931.85	1636.33
932.03	1669.09
932.20	1652.71
932.37	1673.19
932.54	1599.46
932.72	1656.81
932.89	1662.95
933.06	1636.33
933.23	1703.91
933.41	1599.46
933.58	1673.19
933.75	1656.81
933.92	1628.14
934.09	1583.08
934.27	1566.70
934.44	1603.56
934.61	1644.52
934.78	1499.11
934.95	1601.51
935.13	1570.79
935.30	1701.86
935.47	1634.28
935.64	1603.56
935.81	1603.56
935.99	1570.79
936.16	1572.84
936.33	1554.41
936.50	1585.13
936.67	1652.71
936.85	1626.09
937.02	1665.00
937.19	1654.76
937.36	1624.04
937.53	1574.89
937.71	1636.33
937.88	1578.98
938.05	1630.18
938.22	1605.61
938.39	1578.98
938.56	1619.94
938.74	1597.42
938.91	1656.81
939.08	1648.61
939.25	1556.46
939.42	1572.84
939.59	1581.03
939.77	1613.80
939.94	1636.33
940.11	1705.96
940.28	1611.75
940.45	1523.69
940.62	1566.70
940.79	1636.33
940.97	1540.07
941.14	1671.14
941.31	1644.52
941.48	1613.80
941.65	1617.90
941.82	1626.09
941.99	1648.61
942.17	1566.70
942.34	1593.32
942.51	1658.85
942.68	1581.03
942.85	1726.44
943.02	1650.66
943.19	1671.14
943.36	1632.23
943.54	1574.89
943.71	1742.82
943.88	1673.19
944.05	1642.47
944.22	1630.18
944.39	1613.80
944.56	1644.52
944.73	1538.02
944.90	1638.38
945.08	1587.18
945.25	1652.71
945.42	1652.71
945.59	1595.37
945.76	1613.80
945.93	1644.52
946.10	1638.38
946.27	1501.16
946.44	1603.56
946.61	1595.37
946.78	1560.55
946.96	1630.18
947.13	1650.66
947.30	1570.79
947.47	1624.04
947.64	1689.57
947.81	1640.42
947.98	1613.80
948.15	1693.67
948.32	1658.85
948.49	1568.74
948.66	1550.31
948.83	1720.29
949.00	1673.19
949.17	1597.42
949.35	1578.98
949.52	1656.81
949.69	1558.50
949.86	1591.27
950.03	1529.83
950.20	1654.76
950.37	1658.85
950.54	1648.61
950.71	1671.14
950.88	1566.70
951.05	1621.99
951.22	1560.55
951.39	1656.81
951.56	1595.37
951.73	1591.27
951.90	1632.23
952.07	1603.56
952.24	1679.33
952.41	1568.74
952.58	1611.75
952.75	1673.19
952.92	1722.34
953.09	1621.99
953.26	1652.71
953.43	1630.18
953.60	1640.42
953.77	1671.14
953.94	1595.37
954.11	1630.18
954.28	1746.92
954.45	1591.27
954.62	1628.14
954.79	1626.09
954.96	1714.15
955.13	1693.67
955.30	1581.03
955.47	1656.81
955.64	1568.74
955.81	1636.33
955.98	1679.33
956.15	1540.07
956.32	1581.03
956.49	1626.09
956.66	1566.70
956.83	1619.94
957.00	1638.38
957.17	1656.81
957.34	1636.33
957.51	1562.60
957.68	1589.22
957.85	1617.90
958.02	1652.71
958.19	1587.18
958.36	1605.61
958.53	1603.56
958.70	1595.37
958.87	1617.90
959.04	1677.29
959.21	1585.13
959.38	1564.65
959.55	1652.71
959.72	1681.38
959.89	1677.29
960.06	1644.52
960.23	1652.71
960.39	1605.61
960.56	1636.33
960.73	1578.98
960.90	1540.07
961.07	1570.79
961.24	1677.29
961.41	1589.22
961.58	1574.89
961.75	1701.86
961.92	1652.71
962.09	1636.33
962.26	1568.74
962.43	1621.99
962.60	1650.66
962.76	1638.38
962.93	1636.33
963.10	1611.75
963.27	1701.86
963.44	1589.22
963.61	1609.70
963.78	1646.57
963.95	1628.14
964.12	1654.76
964.29	1568.74
964.46	1703.91
964.62	1546.22
964.79	1615.85
964.96	1535.98
965.13	1667.05
965.30	1566.70
965.47	1751.01
965.64	1603.56
965.81	1646.57
965.98	1613.80
966.14	1683.43
966.31	1535.98
966.48	1603.56
966.65	1558.50
966.82	1632.23
966.99	1546.22
967.16	1615.85
967.33	1572.84
967.49	1568.74
967.66	1572.84
967.83	1658.85
968.00	1669.09
968.17	1636.33
968.34	1621.99
968.51	1613.80
968.67	1626.09
968.84	1587.18
969.01	1640.42
969.18	1677.29
969.35	1583.08
969.52	1646.57
969.68	1644.52
969.85	1617.90
970.02	1617.90
970.19	1605.61
970.36	1578.98
970.53	1574.89
970.69	1642.47
970.86	1581.03
971.03	1538.02
971.20	1644.52
971.37	1570.79
971.54	1652.71
971.70	1685.48
971.87	1605.61
972.04	1673.19
972.21	1611.75
972.38	1642.47
972.55	1714.15
972.71	1562.60
972.88	1609.70
973.05	1544.17
973.22	1597.42
973.39	1689.57
973.55	1611.75
973.72	1644.52
973.89	1628.14
974.06	1570.79
974.23	1566.70
974.39	1689.57
974.56	1652.71
974.73	1562.60
974.90	1605.61
975.06	1626.09
975.23	1621.99
975.40	1656.81
975.57	1607.66
975.74	1595.37
975.90	1615.85
976.07	1581.03
976.24	1589.22
976.41	1652.71
976.57	1656.81
976.74	1568.74
976.91	1564.65
977.08	1544.17
977.24	1628.14
977.41	1617.90
977.58	1564.65
977.75	1581.03
977.92	1658.85
978.08	1718.25
978.25	1578.98
978.42	1564.65
978.58	1669.09
978.75	1611.75
978.92	1601.51
979.09	1621.99
979.25	1566.70
979.42	1632.23
979.59	1644.52
979.76	1603.56
979.92	1658.85
980.09	1652.71
980.26	1630.18
980.43	1677.29
980.59	1613.80
980.76	1705.96
980.93	1484.78
981.09	1554.41
981.26	1574.89
981.43	1624.04
981.60	1640.42
981.76	1564.65
981.93	1556.46
982.10	1619.94
982.26	1638.38
982.43	1585.13
982.60	1640.42
982.77	1529.83
982.93	1609.70
983.10	1615.85
983.27	1656.81
983.43	1591.27
983.60	1615.85
983.77	1609.70
983.93	1540.07
984.10	1617.90
984.27	1595.37
984.43	1728.49
984.60	1675.24
984.77	1660.90
984.93	1589.22
985.10	1593.32
985.27	1634.28
985.43	1550.31
985.60	1691.62
985.77	1560.55
985.93	1599.46
986.10	1505.26
986.27	1669.09
986.43	1642.47
986.60	1628.14
986.77	1615.85
986.93	1726.44
987.10	1679.33
987.27	1587.18
987.43	1525.74
987.60	1642.47
987.77	1660.90
987.93	1628.14
988.10	1538.02
988.27	1572.84
988.43	1613.80
988.60	1585.13
988.76	1646.57
988.93	1628.14
989.10	1581.03
989.26	1578.98
989.43	1611.75
989.60	1638.38
989.76	1636.33
989.93	1550.31
990.09	1546.22
990.26	1607.66
990.43	1566.70
990.59	1589.22
990.76	1621.99
990.92	1619.94
991.09	1574.89
991.26	1607.66
991.42	1570.79
991.59	1701.86
991.76	1601.51
991.92	1673.19
992.09	1628.14
992.25	1560.55
992.42	1607.66
992.58	1665.00
992.75	1562.60
992.92	1656.81
993.08	1591.27
993.25	1662.95
993.41	1570.79
993.58	1673.19
993.75	1587.18
993.91	1685.48
994.08	1581.03
994.24	1658.85
994.41	1656.81
994.57	1669.09
994.74	1607.66
994.91	1632.23
995.07	1611.75
995.24	1716.20
995.40	1548.26
995.57	1617.90
995.73	1611.75
995.90	1603.56
996.06	1654.76
996.23	1615.85
996.40	1595.37
996.56	1591.27
996.73	1546.22
996.89	1687.53
997.06	1554.41
997.22	1654.76
997.39	1611.75
997.55	1597.42
997.72	1628.14
997.88	1652.71
998.05	1589.22
998.21	1693.67
998.38	1691.62
998.54	1574.89
998.71	1605.61
998.87	1646.57
999.04	1572.84
999.21	1714.15
999.37	1599.46
999.54	1693.67
999.70	1626.09
999.87	1677.29
1000.03	1562.60
1000.20	1626.09
1000.36	1677.29
1000.53	1613.80
1000.69	1626.09
1000.86	1660.90
1001.02	1531.88
1001.19	1644.52
1001.35	1601.51
1001.52	1628.14
1001.68	1628.14
1001.84	1632.23
1002.01	1552.36
1002.17	1619.94
1002.34	1509.35
1002.50	1581.03
1002.67	1656.81
1002.83	1609.70
1003.00	1597.42
1003.16	1564.65
1003.33	1558.50
1003.49	1685.48
1003.66	1611.75
1003.82	1619.94
1003.99	1578.98
1004.15	1589.22
1004.32	1550.31
1004.48	1673.19
1004.64	1593.32
1004.81	1589.22
1004.97	1660.90
1005.14	1624.04
1005.30	1662.95
1005.47	1648.61
1005.63	1662.95
1005.80	1548.26
1005.96	1521.64
1006.12	1601.51
1006.29	1607.66
1006.45	1689.57
1006.62	1630.18
1006.78	1685.48
1006.95	1601.51
1007.11	1613.80
1007.27	1665.00
1007.44	1611.75
1007.60	1636.33
1007.77	1601.51
1007.93	1558.50
1008.09	1632.23
1008.26	1576.94
1008.42	1722.34
1008.59	1632.23
1008.75	1529.83
1008.92	1660.90
1009.08	1617.90
1009.24	1703.91
1009.41	1585.13
1009.57	1624.04
1009.73	1585.13
1009.90	1603.56
1010.06	1656.81
1010.23	1679.33
1010.39	1611.75
1010.55	1675.24
1010.72	1609.70
1010.88	1544.17
1011.05	1581.03
1011.21	1562.60
1011.37	1611.75
1011.54	1652.71
1011.70	1607.66
1011.86	1542.12
1012.03	1578.98
1012.19	1564.65
1012.36	1652.71
1012.52	1624.04
1012.68	1558.50
1012.85	1601.51
1013.01	1615.85
1013.17	1529.83
1013.34	1587.18
1013.50	1542.12
1013.66	1517.54
1013.83	1615.85
1013.99	1587.18
1014.15	1597.42
1014.32	1720.29
1014.48	1544.17
1014.64	1599.46
1014.81	1538.02
1014.97	1572.84
1015.13	1658.85
1015.30	1564.65
1015.46	1558.50
1015.62	1669.09
1015.79	1617.90
1015.95	1638.38
1016.11	1624.04
1016.28	1605.61
1016.44	1574.89
1016.60	1595.37
1016.77	1648.61
1016.93	1621.99
1017.09	1648.61
1017.26	1566.70
1017.42	1611.75
1017.58	1634.28
1017.74	1667.05
1017.91	1630.18
1018.07	1689.57
1018.23	1560.55
1018.40	1667.05
1018.56	1556.46
1018.72	1624.04
1018.88	1621.99
1019.05	1572.84
1019.21	1634.28
1019.37	1634.28
1019.54	1517.54
1019.70	1624.04
1019.86	1628.14
1020.02	1624.04
1020.19	1597.42
1020.35	1554.41
1020.51	1634.28
1020.68	1562.60
1020.84	1589.22
1021.00	1583.08
1021.16	1644.52
1021.33	1597.42
1021.49	1632.23
1021.65	1542.12
1021.81	1554.41
1021.98	1640.42
1022.14	1662.95
1022.30	1660.90
1022.46	1585.13
1022.63	1548.26
1022.79	1701.86
1022.95	1636.33
1023.11	1632.23
1023.27	1613.80
1023.44	1636.33
1023.60	1548.26
1023.76	1611.75
1023.92	1570.79
1024.09	1648.61
1024.25	1712.10
1024.41	1693.67
1024.57	1654.76
1024.74	1593.32
1024.90	1599.46
1025.06	1660.90
1025.22	1587.18
1025.38	1603.56
1025.55	1595.37
1025.71	1679.33
1025.87	1650.66
1026.03	1556.46
1026.19	1581.03
1026.36	1546.22
1026.52	1695.72
1026.68	1527.78
1026.84	1554.41
1027.00	1595.37
1027.17	1677.29
1027.33	1595.37
1027.49	1669.09
1027.65	1611.75
1027.81	1619.94
1027.97	1589.22
1028.14	1595.37
1028.30	1654.76
1028.46	1652.71
1028.62	1681.38
1028.78	1617.90
1028.94	1572.84
1029.11	1613.80
1029.27	1632.23
1029.43	1667.05
1029.59	1669.09
1029.75	1554.41
1029.91	1570.79
1030.08	1574.89
1030.24	1552.36
1030.40	1562.60
1030.56	1607.66
1030.72	1601.51
1030.88	1552.36
1031.04	1634.28
1031.21	1619.94
1031.37	1570.79
1031.53	1621.99
1031.69	1581.03
1031.85	1589.22
1032.01	1632.23
1032.17	1624.04
1032.34	1673.19
1032.50	1646.57
1032.66	1566.70
1032.82	1628.14
1032.98	1701.86
1033.14	1640.42
1033.30	1558.50
1033.46	1712.10
1033.62	1644.52
1033.79	1587.18
1033.95	1619.94
1034.11	1574.89
1034.27	1722.34
1034.43	1597.42
1034.59	1611.75
1034.75	1583.08
1034.91	1529.83
1035.07	1595.37
1035.23	1665.00
1035.40	1615.85
1035.56	1677.29
1035.72	1607.66
1035.88	1624.04
1036.04	1619.94
1036.20	1638.38
>>>>>End Processed Spectral Data<<<<<
