SpectraSuite Data File
++++++++++++++++++++++++++++++++++++
Date: Fri May 12 15:34:51 EDT 2017
User: jcherston
Dark Spectrum Present: Yes
Reference Spectrum Present: Yes
Number of Sampled Component Spectra: 1
Spectrometers: USB4F06975
Integration Time (usec): 100000 (USB4F06975)
Spectra Averaged: 1 (USB4F06975)
Boxcar Smoothing: 0 (USB4F06975)
Correct for Electrical Dark: No (USB4F06975)
Strobe/Lamp Enabled: No (USB4F06975)
Correct for Detector Non-linearity: No (USB4F06975)
Correct for Stray Light: No (USB4F06975)
Number of Pixels in Processed Spectrum: 3648
>>>>>Begin Processed Spectral Data<<<<<
346.57	1464.30
346.78	1464.30
346.99	1464.30
347.20	1443.82
347.41	1394.67
347.62	1572.84
347.83	1568.74
348.04	1595.37
348.25	1613.80
348.46	1538.02
348.67	1687.53
348.88	1576.94
349.09	1621.99
349.30	1628.14
349.51	1587.18
349.72	1624.04
349.93	1499.11
350.14	1578.98
350.35	1646.57
350.56	1660.90
350.77	1636.33
350.98	1548.26
351.19	1619.94
351.40	1652.71
351.61	1630.18
351.82	1597.42
352.03	1525.74
352.24	1615.85
352.45	1621.99
352.66	1630.18
352.87	1583.08
353.08	1665.00
353.29	1615.85
353.50	1726.44
353.71	1636.33
353.92	1613.80
354.13	1677.29
354.34	1613.80
354.55	1509.35
354.76	1609.70
354.97	1542.12
355.18	1570.79
355.39	1515.50
355.60	1662.95
355.80	1597.42
356.01	1533.93
356.22	1540.07
356.43	1587.18
356.64	1554.41
356.85	1581.03
357.06	1495.02
357.27	1624.04
357.48	1587.18
357.69	1564.65
357.90	1595.37
358.11	1607.66
358.32	1591.27
358.53	1519.59
358.74	1652.71
358.95	1548.26
359.16	1687.53
359.37	1650.66
359.58	1587.18
359.79	1523.69
360.00	1679.33
360.21	1511.40
360.42	1665.00
360.63	1562.60
360.84	1640.42
361.05	1562.60
361.26	1595.37
361.46	1511.40
361.67	1562.60
361.88	1638.38
362.09	1568.74
362.30	1619.94
362.51	1654.76
362.72	1601.51
362.93	1611.75
363.14	1544.17
363.35	1726.44
363.56	1546.22
363.77	1601.51
363.98	1660.90
364.19	1673.19
364.40	1558.50
364.61	1654.76
364.82	1546.22
365.03	1658.85
365.24	1630.18
365.44	1519.59
365.65	1583.08
365.86	1644.52
366.07	1634.28
366.28	1681.38
366.49	1597.42
366.70	1556.46
366.91	1654.76
367.12	1634.28
367.33	1613.80
367.54	1611.75
367.75	1652.71
367.96	1603.56
368.17	1634.28
368.38	1636.33
368.58	1591.27
368.79	1695.72
369.00	1601.51
369.21	1683.43
369.42	1589.22
369.63	1621.99
369.84	1630.18
370.05	1554.41
370.26	1613.80
370.47	1642.47
370.68	1568.74
370.89	1626.09
371.09	1556.46
371.30	1605.61
371.51	1630.18
371.72	1521.64
371.93	1587.18
372.14	1587.18
372.35	1617.90
372.56	1570.79
372.77	1578.98
372.98	1554.41
373.19	1552.36
373.40	1566.70
373.60	1591.27
373.81	1599.46
374.02	1615.85
374.23	1576.94
374.44	1630.18
374.65	1640.42
374.86	1576.94
375.07	1652.71
375.28	1632.23
375.49	1634.28
375.69	1564.65
375.90	1632.23
376.11	1613.80
376.32	1501.16
376.53	1548.26
376.74	1558.50
376.95	1611.75
377.16	1615.85
377.37	1558.50
377.58	1609.70
377.78	1595.37
377.99	1499.11
378.20	1593.32
378.41	1636.33
378.62	1624.04
378.83	1574.89
379.04	1589.22
379.25	1691.62
379.46	1611.75
379.66	1554.41
379.87	1583.08
380.08	1648.61
380.29	1529.83
380.50	1599.46
380.71	1562.60
380.92	1615.85
381.13	1595.37
381.33	1576.94
381.54	1667.05
381.75	1636.33
381.96	1605.61
382.17	1562.60
382.38	1624.04
382.59	1556.46
382.80	1570.79
383.00	1621.99
383.21	1578.98
383.42	1513.45
383.63	1546.22
383.84	1732.58
384.05	1581.03
384.26	1599.46
384.47	1603.56
384.67	1583.08
384.88	1497.07
385.09	1538.02
385.30	1654.76
385.51	1621.99
385.72	1648.61
385.93	1550.31
386.13	1681.38
386.34	1671.14
386.55	1589.22
386.76	1568.74
386.97	1572.84
387.18	1556.46
387.39	1492.97
387.59	1605.61
387.80	1630.18
388.01	1630.18
388.22	1671.14
388.43	1585.13
388.64	1566.70
388.85	1648.61
389.05	1583.08
389.26	1681.38
389.47	1605.61
389.68	1597.42
389.89	1574.89
390.10	1656.81
390.31	1517.54
390.51	1607.66
390.72	1570.79
390.93	1619.94
391.14	1650.66
391.35	1597.42
391.56	1624.04
391.76	1673.19
391.97	1609.70
392.18	1509.35
392.39	1601.51
392.60	1695.72
392.81	1619.94
393.01	1615.85
393.22	1578.98
393.43	1591.27
393.64	1581.03
393.85	1552.36
394.06	1574.89
394.26	1654.76
394.47	1589.22
394.68	1642.47
394.89	1548.26
395.10	1611.75
395.31	1632.23
395.51	1624.04
395.72	1556.46
395.93	1605.61
396.14	1607.66
396.35	1603.56
396.55	1542.12
396.76	1599.46
396.97	1636.33
397.18	1566.70
397.39	1662.95
397.60	1525.74
397.80	1589.22
398.01	1617.90
398.22	1644.52
398.43	1595.37
398.64	1513.45
398.84	1566.70
399.05	1630.18
399.26	1611.75
399.47	1570.79
399.68	1544.17
399.88	1554.41
400.09	1589.22
400.30	1607.66
400.51	1611.75
400.72	1638.38
400.92	1581.03
401.13	1591.27
401.34	1685.48
401.55	1585.13
401.76	1619.94
401.96	1617.90
402.17	1607.66
402.38	1615.85
402.59	1742.82
402.80	1943.52
403.00	1564.65
403.21	1556.46
403.42	1529.83
403.63	1636.33
403.84	1632.23
404.04	1591.27
404.25	1589.22
404.46	1669.09
404.67	1593.32
404.88	1613.80
405.08	1595.37
405.29	1660.90
405.50	1642.47
405.71	1603.56
405.91	1583.08
406.12	1589.22
406.33	1578.98
406.54	1585.13
406.75	1687.53
406.95	1470.44
407.16	1640.42
407.37	1613.80
407.58	1617.90
407.78	1949.67
407.99	1603.56
408.20	1533.93
408.41	1669.09
408.62	1542.12
408.82	1533.93
409.03	1550.31
409.24	1595.37
409.45	1552.36
409.65	1611.75
409.86	1585.13
410.07	1662.95
410.28	1507.30
410.48	1621.99
410.69	1589.22
410.90	1525.74
411.11	1693.67
411.31	1603.56
411.52	1671.14
411.73	1740.77
411.94	1687.53
412.14	1595.37
412.35	1540.07
412.56	1630.18
412.77	1517.54
412.98	1521.64
413.18	1562.60
413.39	1607.66
413.60	1566.70
413.81	1589.22
414.01	1581.03
414.22	1599.46
414.43	1624.04
414.64	1517.54
414.84	1626.09
415.05	1497.07
415.26	1609.70
415.46	1587.18
415.67	1603.56
415.88	1533.93
416.09	1578.98
416.29	1652.71
416.50	1624.04
416.71	1581.03
416.92	1628.14
417.12	1613.80
417.33	1578.98
417.54	1601.51
417.75	1587.18
417.95	1626.09
418.16	1642.47
418.37	1578.98
418.58	1589.22
418.78	1576.94
418.99	1587.18
419.20	1605.61
419.40	1701.86
419.61	1572.84
419.82	1499.11
420.03	1658.85
420.23	1607.66
420.44	1628.14
420.65	1589.22
420.85	1574.89
421.06	1574.89
421.27	1599.46
421.48	1583.08
421.68	1654.76
421.89	1595.37
422.10	1589.22
422.30	1587.18
422.51	1517.54
422.72	1632.23
422.93	1570.79
423.13	1648.61
423.34	1646.57
423.55	1617.90
423.75	1630.18
423.96	1576.94
424.17	1624.04
424.38	1529.83
424.58	1523.69
424.79	1548.26
425.00	1578.98
425.20	1634.28
425.41	1677.29
425.62	1619.94
425.83	1564.65
426.03	1585.13
426.24	1611.75
426.45	1644.52
426.65	1574.89
426.86	1509.35
427.07	1568.74
427.27	1658.85
427.48	1587.18
427.69	1613.80
427.89	1587.18
428.10	1712.10
428.31	1603.56
428.52	1638.38
428.72	1578.98
428.93	1630.18
429.14	1646.57
429.34	1521.64
429.55	1578.98
429.76	1560.55
429.96	1619.94
430.17	1640.42
430.38	1605.61
430.58	1574.89
430.79	1599.46
431.00	1578.98
431.20	1617.90
431.41	1644.52
431.62	1697.77
431.82	1572.84
432.03	1628.14
432.24	1576.94
432.44	1603.56
432.65	1652.71
432.86	1697.77
433.06	1572.84
433.27	1611.75
433.48	1681.38
433.68	1597.42
433.89	1611.75
434.10	1636.33
434.30	1619.94
434.51	1572.84
434.72	1544.17
434.92	1619.94
435.13	1554.41
435.34	1656.81
435.54	1613.80
435.75	1636.33
435.96	1533.93
436.16	1652.71
436.37	1554.41
436.58	1607.66
436.78	1578.98
436.99	1591.27
437.20	1642.47
437.40	1701.86
437.61	1581.03
437.82	1599.46
438.02	1624.04
438.23	1636.33
438.43	1693.67
438.64	1632.23
438.85	1624.04
439.05	1607.66
439.26	1587.18
439.47	1585.13
439.67	1603.56
439.88	1548.26
440.09	1566.70
440.29	1638.38
440.50	1587.18
440.71	1599.46
440.91	1640.42
441.12	1576.94
441.32	1548.26
441.53	1556.46
441.74	1619.94
441.94	1503.21
442.15	1597.42
442.36	1636.33
442.56	1611.75
442.77	1714.15
442.97	1570.79
443.18	1722.34
443.39	1667.05
443.59	1613.80
443.80	1578.98
444.01	1615.85
444.21	1624.04
444.42	1648.61
444.62	1560.55
444.83	1576.94
445.04	1550.31
445.24	1560.55
445.45	1648.61
445.66	1578.98
445.86	1609.70
446.07	1587.18
446.27	1644.52
446.48	1523.69
446.69	1574.89
446.89	1628.14
447.10	1546.22
447.30	1578.98
447.51	1531.88
447.72	1673.19
447.92	1728.49
448.13	1611.75
448.33	1546.22
448.54	1597.42
448.75	1527.78
448.95	1589.22
449.16	1540.07
449.36	1671.14
449.57	1605.61
449.78	1673.19
449.98	1642.47
450.19	1583.08
450.39	1531.88
450.60	1648.61
450.81	1636.33
451.01	1513.45
451.22	1560.55
451.42	1624.04
451.63	1619.94
451.84	1599.46
452.04	1564.65
452.25	1644.52
452.45	1642.47
452.66	1652.71
452.86	1595.37
453.07	1658.85
453.28	1560.55
453.48	1626.09
453.69	1617.90
453.89	1542.12
454.10	1599.46
454.30	1611.75
454.51	1578.98
454.72	1603.56
454.92	1568.74
455.13	1521.64
455.33	1589.22
455.54	1576.94
455.74	1634.28
455.95	1638.38
456.16	1568.74
456.36	1578.98
456.57	1603.56
456.77	1595.37
456.98	1660.90
457.18	1587.18
457.39	1570.79
457.60	1609.70
457.80	1634.28
458.01	1615.85
458.21	1621.99
458.42	1599.46
458.62	1581.03
458.83	1558.50
459.03	1615.85
459.24	1681.38
459.45	1640.42
459.65	1578.98
459.86	1673.19
460.06	1603.56
460.27	1574.89
460.47	1562.60
460.68	1681.38
460.88	1685.48
461.09	1628.14
461.30	1615.85
461.50	1619.94
461.71	1591.27
461.91	1492.97
462.12	1566.70
462.32	1599.46
462.53	1595.37
462.73	1574.89
462.94	1669.09
463.14	1619.94
463.35	1636.33
463.55	1677.29
463.76	1570.79
463.96	1640.42
464.17	1589.22
464.38	1646.57
464.58	1570.79
464.79	1660.90
464.99	1603.56
465.20	1644.52
465.40	1560.55
465.61	1562.60
465.81	1634.28
466.02	1572.84
466.22	1685.48
466.43	1619.94
466.63	1617.90
466.84	1628.14
467.04	1589.22
467.25	1533.93
467.45	1646.57
467.66	1619.94
467.86	1656.81
468.07	1599.46
468.27	1574.89
468.48	1564.65
468.68	1636.33
468.89	1583.08
469.09	1529.83
469.30	1611.75
469.51	1583.08
469.71	1609.70
469.92	1574.89
470.12	1669.09
470.33	1603.56
470.53	1517.54
470.74	1591.27
470.94	1587.18
471.15	1660.90
471.35	2037.73
471.56	1583.08
471.76	1558.50
471.97	1615.85
472.17	1587.18
472.38	1687.53
472.58	1628.14
472.78	1556.46
472.99	1626.09
473.19	1595.37
473.40	1574.89
473.60	1763.30
473.81	1513.45
474.01	1595.37
474.22	1597.42
474.42	1691.62
474.63	1644.52
474.83	1560.55
475.04	1593.32
475.24	1599.46
475.45	1759.21
475.65	1609.70
475.86	1509.35
476.06	1521.64
476.27	1601.51
476.47	1568.74
476.68	1583.08
476.88	1665.00
477.09	1609.70
477.29	1556.46
477.50	1615.85
477.70	1544.17
477.90	1517.54
478.11	1587.18
478.31	1615.85
478.52	1595.37
478.72	1552.36
478.93	1533.93
479.13	1656.81
479.34	1523.69
479.54	1581.03
479.75	1538.02
479.95	1568.74
480.16	1658.85
480.36	1628.14
480.56	1511.40
480.77	1529.83
480.97	1662.95
481.18	1574.89
481.38	1722.34
481.59	1619.94
481.79	1535.98
482.00	1607.66
482.20	1638.38
482.41	1849.32
482.61	1634.28
482.81	1660.90
483.02	1615.85
483.22	1611.75
483.43	1634.28
483.63	1677.29
483.84	1558.50
484.04	1695.72
484.24	1585.13
484.45	1646.57
484.65	1697.77
484.86	1662.95
485.06	1677.29
485.27	1578.98
485.47	1632.23
485.68	1640.42
485.88	1585.13
486.08	1572.84
486.29	1654.76
486.49	1652.71
486.70	1628.14
486.90	1699.81
487.11	1650.66
487.31	1640.42
487.51	1587.18
487.72	1619.94
487.92	1673.19
488.13	1695.72
488.33	1640.42
488.53	1611.75
488.74	1626.09
488.94	1613.80
489.15	1636.33
489.35	1626.09
489.56	1564.65
489.76	1701.86
489.96	1644.52
490.17	1615.85
490.37	1693.67
490.58	1669.09
490.78	1595.37
490.98	1593.32
491.19	1611.75
491.39	1607.66
491.60	1648.61
491.80	1548.26
492.00	1554.41
492.21	1638.38
492.41	1636.33
492.62	1574.89
492.82	1558.50
493.02	1570.79
493.23	1687.53
493.43	1607.66
493.64	1544.17
493.84	1632.23
494.04	1703.91
494.25	1587.18
494.45	1605.61
494.66	1609.70
494.86	1675.24
495.06	1554.41
495.27	1595.37
495.47	1652.71
495.67	1628.14
495.88	1570.79
496.08	1615.85
496.29	1685.48
496.49	1654.76
496.69	1630.18
496.90	1613.80
497.10	1654.76
497.30	1568.74
497.51	1615.85
497.71	1656.81
497.92	1595.37
498.12	1550.31
498.32	1587.18
498.53	1601.51
498.73	1660.90
498.93	1746.92
499.14	1597.42
499.34	1673.19
499.55	1595.37
499.75	1595.37
499.95	1619.94
500.16	1695.72
500.36	1662.95
500.56	1568.74
500.77	1646.57
500.97	1683.43
501.17	1658.85
501.38	1533.93
501.58	1646.57
501.79	1705.96
501.99	1556.46
502.19	1628.14
502.40	1605.61
502.60	1634.28
502.80	1617.90
503.01	1693.67
503.21	1619.94
503.41	1628.14
503.62	1615.85
503.82	1558.50
504.02	1656.81
504.23	1617.90
504.43	1712.10
504.63	1636.33
504.84	1566.70
505.04	1644.52
505.24	1681.38
505.45	1691.62
505.65	1603.56
505.85	1589.22
506.06	1675.24
506.26	1562.60
506.46	1591.27
506.67	1581.03
506.87	1632.23
507.07	1667.05
507.28	1675.24
507.48	1632.23
507.68	1644.52
507.89	1665.00
508.09	1654.76
508.29	1568.74
508.50	1626.09
508.70	1695.72
508.90	1665.00
509.11	1732.58
509.31	1662.95
509.51	1660.90
509.72	1693.67
509.92	1693.67
510.12	1564.65
510.32	1636.33
510.53	1652.71
510.73	1638.38
510.93	1624.04
511.14	1660.90
511.34	1644.52
511.54	1603.56
511.75	1660.90
511.95	1734.63
512.15	1595.37
512.36	1701.86
512.56	1617.90
512.76	1632.23
512.96	1654.76
513.17	1677.29
513.37	1611.75
513.57	1638.38
513.78	1595.37
513.98	1646.57
514.18	1628.14
514.38	1615.85
514.59	1624.04
514.79	1656.81
514.99	1591.27
515.20	1632.23
515.40	1564.65
515.60	1662.95
515.80	1589.22
516.01	1683.43
516.21	1710.05
516.41	1595.37
516.62	1619.94
516.82	1615.85
517.02	1617.90
517.22	1662.95
517.43	1695.72
517.63	1654.76
517.83	1585.13
518.04	1615.85
518.24	1589.22
518.44	1624.04
518.64	1660.90
518.85	1695.72
519.05	1619.94
519.25	1574.89
519.45	1718.25
519.66	1701.86
519.86	1599.46
520.06	1576.94
520.26	1689.57
520.47	1564.65
520.67	1675.24
520.87	1669.09
521.08	1677.29
521.28	1681.38
521.48	1796.07
521.68	1613.80
521.89	1646.57
522.09	1648.61
522.29	1662.95
522.49	1624.04
522.70	1685.48
522.90	1701.86
523.10	1691.62
523.30	1609.70
523.51	1611.75
523.71	1636.33
523.91	1636.33
524.11	1687.53
524.31	1644.52
524.52	1693.67
524.72	1605.61
524.92	1687.53
525.12	1595.37
525.33	1591.27
525.53	1660.90
525.73	1693.67
525.93	1660.90
526.14	1578.98
526.34	1646.57
526.54	1595.37
526.74	1644.52
526.95	1695.72
527.15	1630.18
527.35	1662.95
527.55	1673.19
527.75	1568.74
527.96	1603.56
528.16	1624.04
528.36	1554.41
528.56	1619.94
528.77	1548.26
528.97	1648.61
529.17	1660.90
529.37	1587.18
529.57	1669.09
529.78	1658.85
529.98	1589.22
530.18	1685.48
530.38	1654.76
530.58	1669.09
530.79	1621.99
530.99	1652.71
531.19	1634.28
531.39	1679.33
531.59	1654.76
531.80	1673.19
532.00	1644.52
532.20	1626.09
532.40	1607.66
532.60	1654.76
532.81	1681.38
533.01	1599.46
533.21	1642.47
533.41	1693.67
533.61	1566.70
533.82	1677.29
534.02	1585.13
534.22	1677.29
534.42	1634.28
534.62	1714.15
534.83	1669.09
535.03	1660.90
535.23	1566.70
535.43	1662.95
535.63	1640.42
535.83	1703.91
536.04	1656.81
536.24	1632.23
536.44	1578.98
536.64	1644.52
536.84	1705.96
537.05	1621.99
537.25	1730.53
537.45	1638.38
537.65	1611.75
537.85	1679.33
538.05	1689.57
538.26	1589.22
538.46	1708.01
538.66	1650.66
538.86	1603.56
539.06	1683.43
539.26	1636.33
539.47	1636.33
539.67	1562.60
539.87	1744.87
540.07	1705.96
540.27	1720.29
540.47	1703.91
540.68	1742.82
540.88	1726.44
541.08	1640.42
541.28	1693.67
541.48	1667.05
541.68	1609.70
541.88	1769.44
542.09	1624.04
542.29	1710.05
542.49	1644.52
542.69	1804.26
542.89	1746.92
543.09	1693.67
543.29	1658.85
543.50	1644.52
543.70	1665.00
543.90	1712.10
544.10	1701.86
544.30	1675.24
544.50	1656.81
544.70	1687.53
544.91	1728.49
545.11	1662.95
545.31	1791.97
545.51	1654.76
545.71	1667.05
545.91	1757.16
546.11	1621.99
546.31	1636.33
546.52	1638.38
546.72	1718.25
546.92	1673.19
547.12	1681.38
547.32	1619.94
547.52	1656.81
547.72	1681.38
547.92	1697.77
548.13	1628.14
548.33	1718.25
548.53	1693.67
548.73	1714.15
548.93	1652.71
549.13	1732.58
549.33	1681.38
549.53	1617.90
549.73	1714.15
549.94	1636.33
550.14	1710.05
550.34	1669.09
550.54	1677.29
550.74	1705.96
550.94	1767.40
551.14	1744.87
551.34	1648.61
551.54	1630.18
551.74	1626.09
551.95	1640.42
552.15	1716.20
552.35	1652.71
552.55	1628.14
552.75	1724.39
552.95	1648.61
553.15	1628.14
553.35	1671.14
553.55	1728.49
553.75	1679.33
553.95	1671.14
554.16	1603.56
554.36	1632.23
554.56	1611.75
554.76	1669.09
554.96	1665.00
555.16	1689.57
555.36	1695.72
555.56	1693.67
555.76	1654.76
555.96	1693.67
556.16	1718.25
556.36	1738.73
556.57	1726.44
556.77	1677.29
556.97	1740.77
557.17	1724.39
557.37	1652.71
557.57	1630.18
557.77	1714.15
557.97	1556.46
558.17	1697.77
558.37	1710.05
558.57	1722.34
558.77	1636.33
558.97	1662.95
559.17	1658.85
559.37	1595.37
559.57	1648.61
559.78	1628.14
559.98	1624.04
560.18	1662.95
560.38	1734.63
560.58	1701.86
560.78	1714.15
560.98	1652.71
561.18	1701.86
561.38	1624.04
561.58	1683.43
561.78	1722.34
561.98	1728.49
562.18	1630.18
562.38	1791.97
562.58	1775.59
562.78	1703.91
562.98	1646.57
563.18	1791.97
563.38	1667.05
563.58	1685.48
563.78	1712.10
563.98	1667.05
564.18	1646.57
564.38	1677.29
564.58	1701.86
564.79	1679.33
564.99	1689.57
565.19	1669.09
565.39	1691.62
565.59	1734.63
565.79	1667.05
565.99	1693.67
566.19	1624.04
566.39	1705.96
566.59	1714.15
566.79	1691.62
566.99	1705.96
567.19	1751.01
567.39	1693.67
567.59	1726.44
567.79	1685.48
567.99	1638.38
568.19	1695.72
568.39	1701.86
568.59	1617.90
568.79	1648.61
568.99	1656.81
569.19	1548.26
569.39	1748.97
569.59	1644.52
569.79	1630.18
569.99	1734.63
570.19	1611.75
570.39	1685.48
570.59	1759.21
570.79	1621.99
570.99	1589.22
571.19	1605.61
571.39	1667.05
571.59	1677.29
571.79	1689.57
571.99	1681.38
572.19	1697.77
572.39	1710.05
572.59	1722.34
572.79	1638.38
572.99	1609.70
573.19	1705.96
573.39	1732.58
573.59	1617.90
573.79	1603.56
573.99	1656.81
574.19	1705.96
574.38	1718.25
574.58	1650.66
574.78	1673.19
574.98	1685.48
575.18	1726.44
575.38	1658.85
575.58	1685.48
575.78	1761.25
575.98	1699.81
576.18	1658.85
576.38	1701.86
576.58	1697.77
576.78	1683.43
576.98	1619.94
577.18	1718.25
577.38	1765.35
577.58	1828.84
577.78	1646.57
577.98	1652.71
578.18	1656.81
578.38	1703.91
578.58	1673.19
578.78	1726.44
578.98	1654.76
579.18	1665.00
579.37	1685.48
579.57	1677.29
579.77	1787.88
579.97	1738.73
580.17	1660.90
580.37	1605.61
580.57	1800.16
580.77	1701.86
580.97	2074.59
581.17	1644.52
581.37	1648.61
581.57	1669.09
581.77	1574.89
581.97	1679.33
582.17	1632.23
582.37	1779.68
582.56	1767.40
582.76	1638.38
582.96	1648.61
583.16	1699.81
583.36	1722.34
583.56	1720.29
583.76	1621.99
583.96	1710.05
584.16	1724.39
584.36	1685.48
584.56	1701.86
584.76	1722.34
584.95	1826.79
585.15	1665.00
585.35	1701.86
585.55	1679.33
585.75	1753.06
585.95	1632.23
586.15	1665.00
586.35	1679.33
586.55	1701.86
586.75	1683.43
586.95	1626.09
587.14	1638.38
587.34	1703.91
587.54	1669.09
587.74	1740.77
587.94	1671.14
588.14	1759.21
588.34	1730.53
588.54	1720.29
588.74	1640.42
588.94	1662.95
589.13	1685.48
589.33	1722.34
589.53	1646.57
589.73	1685.48
589.93	1734.63
590.13	1640.42
590.33	1673.19
590.53	1646.57
590.72	1660.90
590.92	1744.87
591.12	1644.52
591.32	1581.03
591.52	1644.52
591.72	1662.95
591.92	1777.64
592.12	1687.53
592.32	1673.19
592.51	1640.42
592.71	1744.87
592.91	1675.24
593.11	1751.01
593.31	1619.94
593.51	1611.75
593.71	1718.25
593.90	1677.29
594.10	1687.53
594.30	1761.25
594.50	1787.88
594.70	1640.42
594.90	1685.48
595.10	1740.77
595.29	1753.06
595.49	1677.29
595.69	1740.77
595.89	1714.15
596.09	1640.42
596.29	1724.39
596.49	1660.90
596.68	1685.48
596.88	1660.90
597.08	1744.87
597.28	1738.73
597.48	1734.63
597.68	1660.90
597.87	1755.11
598.07	1769.44
598.27	1665.00
598.47	1652.71
598.67	1720.29
598.87	1744.87
599.06	1673.19
599.26	1705.96
599.46	1824.74
599.66	1685.48
599.86	1660.90
600.06	1761.25
600.25	1689.57
600.45	1734.63
600.65	1710.05
600.85	1703.91
601.05	1738.73
601.25	1724.39
601.44	1765.35
601.64	1650.66
601.84	1832.93
602.04	1693.67
602.24	1587.18
602.43	1705.96
602.63	1654.76
602.83	1710.05
603.03	1703.91
603.23	1714.15
603.42	1789.92
603.62	1662.95
603.82	1693.67
604.02	1703.91
604.22	1687.53
604.42	1570.79
604.61	1732.58
604.81	1697.77
605.01	1728.49
605.21	2013.15
605.40	1667.05
605.60	1673.19
605.80	1767.40
606.00	1785.83
606.20	1744.87
606.39	1730.53
606.59	1742.82
606.79	1687.53
606.99	1644.52
607.19	1665.00
607.38	1720.29
607.58	1679.33
607.78	1765.35
607.98	1736.68
608.18	1595.37
608.37	1732.58
608.57	1607.66
608.77	1734.63
608.97	1732.58
609.16	1656.81
609.36	1673.19
609.56	1800.16
609.76	1669.09
609.95	1652.71
610.15	1791.97
610.35	1681.38
610.55	1791.97
610.75	1687.53
610.94	1730.53
611.14	1753.06
611.34	1779.68
611.54	1716.20
611.73	1779.68
611.93	1677.29
612.13	1787.88
612.33	1712.10
612.52	1689.57
612.72	1761.25
612.92	1708.01
613.12	1685.48
613.31	1703.91
613.51	1806.31
613.71	1722.34
613.91	1755.11
614.10	1640.42
614.30	1761.25
614.50	1759.21
614.70	1689.57
614.89	1759.21
615.09	1718.25
615.29	1808.36
615.49	1734.63
615.68	1699.81
615.88	1861.60
616.08	1748.97
616.27	1724.39
616.47	1697.77
616.67	1650.66
616.87	1652.71
617.06	1712.10
617.26	1658.85
617.46	1742.82
617.66	1658.85
617.85	1746.92
618.05	1701.86
618.25	1689.57
618.44	1679.33
618.64	1648.61
618.84	1759.21
619.04	1759.21
619.23	1818.60
619.43	1759.21
619.63	1781.73
619.82	1701.86
620.02	1722.34
620.22	1751.01
620.42	1705.96
620.61	1701.86
620.81	1779.68
621.01	1734.63
621.20	1687.53
621.40	1744.87
621.60	1683.43
621.79	1738.73
621.99	1685.48
622.19	1710.05
622.39	1746.92
622.58	1771.49
622.78	1728.49
622.98	1697.77
623.17	1693.67
623.37	2121.70
623.57	1650.66
623.76	1648.61
623.96	1703.91
624.16	1755.11
624.35	1761.25
624.55	1712.10
624.75	1861.60
624.94	1705.96
625.14	1634.28
625.34	1705.96
625.53	1677.29
625.73	1685.48
625.93	1732.58
626.12	1697.77
626.32	1718.25
626.52	1738.73
626.71	1705.96
626.91	1716.20
627.11	1720.29
627.30	1667.05
627.50	1662.95
627.70	1734.63
627.89	1816.55
628.09	1746.92
628.29	1665.00
628.48	1701.86
628.68	1765.35
628.88	1742.82
629.07	1791.97
629.27	1681.38
629.47	1771.49
629.66	1775.59
629.86	1742.82
630.06	1791.97
630.25	1744.87
630.45	1697.77
630.65	1775.59
630.84	1687.53
631.04	1742.82
631.24	1642.47
631.43	1708.01
631.63	1757.16
631.82	1662.95
632.02	1808.36
632.22	1726.44
632.41	1669.09
632.61	1757.16
632.81	1814.50
633.00	1697.77
633.20	1705.96
633.39	1714.15
633.59	1705.96
633.79	1667.05
633.98	1677.29
634.18	1705.96
634.38	1775.59
634.57	1742.82
634.77	1718.25
634.96	1697.77
635.16	1738.73
635.36	1783.78
635.55	1806.31
635.75	1820.64
635.95	1720.29
636.14	1763.30
636.34	1814.50
636.53	1710.05
636.73	1734.63
636.93	1791.97
637.12	1755.11
637.32	1636.33
637.51	1685.48
637.71	1832.93
637.91	1703.91
638.10	1701.86
638.30	1740.77
638.49	1777.64
638.69	1703.91
638.89	1644.52
639.08	1755.11
639.28	1769.44
639.47	1708.01
639.67	1738.73
639.86	1769.44
640.06	1748.97
640.26	1783.78
640.45	1730.53
640.65	1708.01
640.84	1775.59
641.04	1728.49
641.24	1769.44
641.43	1787.88
641.63	1744.87
641.82	1806.31
642.02	1705.96
642.21	1769.44
642.41	1730.53
642.61	1718.25
642.80	1832.93
643.00	1761.25
643.19	1759.21
643.39	1578.98
643.58	1726.44
643.78	1734.63
643.97	1705.96
644.17	1822.69
644.37	1677.29
644.56	1687.53
644.76	1726.44
644.95	1738.73
645.15	1841.12
645.34	1693.67
645.54	1800.16
645.73	1841.12
645.93	1785.83
646.13	1689.57
646.32	1720.29
646.52	1671.14
646.71	1748.97
646.91	1759.21
647.10	1751.01
647.30	1783.78
647.49	1755.11
647.69	1689.57
647.88	1724.39
648.08	1783.78
648.28	1748.97
648.47	1611.75
648.67	1669.09
648.86	1736.68
649.06	1837.03
649.25	1662.95
649.45	1755.11
649.64	1632.23
649.84	1703.91
650.03	1726.44
650.23	1761.25
650.42	1751.01
650.62	1755.11
650.81	1748.97
651.01	1763.30
651.20	1738.73
651.40	1751.01
651.59	1763.30
651.79	1828.84
651.98	1775.59
652.18	1718.25
652.37	1699.81
652.57	1761.25
652.76	1859.56
652.96	1738.73
653.15	1722.34
653.35	1701.86
653.54	1685.48
653.74	1763.30
653.93	1755.11
654.13	1759.21
654.32	1699.81
654.52	1673.19
654.71	1822.69
654.91	1736.68
655.10	1701.86
655.30	1712.10
655.49	1710.05
655.69	1802.21
655.88	1712.10
656.08	1736.68
656.27	1791.97
656.47	1765.35
656.66	1744.87
656.86	1828.84
657.05	1746.92
657.25	1677.29
657.44	1779.68
657.64	1712.10
657.83	1759.21
658.03	1714.15
658.22	1818.60
658.42	1785.83
658.61	1626.09
658.80	1716.20
659.00	1656.81
659.19	1779.68
659.39	1699.81
659.58	1839.08
659.78	1787.88
659.97	1785.83
660.17	1853.41
660.36	1638.38
660.56	1660.90
660.75	1695.72
660.95	1726.44
661.14	1757.16
661.33	1644.52
661.53	1720.29
661.72	1695.72
661.92	1783.78
662.11	1677.29
662.31	1791.97
662.50	1841.12
662.70	1679.33
662.89	1705.96
663.08	1712.10
663.28	1753.06
663.47	1751.01
663.67	1665.00
663.86	1794.02
664.06	1759.21
664.25	1767.40
664.44	1744.87
664.64	1710.05
664.83	1863.65
665.03	1726.44
665.22	1722.34
665.42	1808.36
665.61	1691.62
665.80	1716.20
666.00	1751.01
666.19	1720.29
666.39	1738.73
666.58	1806.31
666.77	1779.68
666.97	1697.77
667.16	1802.21
667.36	1714.15
667.55	1710.05
667.75	1800.16
667.94	1734.63
668.13	1742.82
668.33	1802.21
668.52	1724.39
668.72	1767.40
668.91	1691.62
669.10	1791.97
669.30	1789.92
669.49	1757.16
669.69	1779.68
669.88	1738.73
670.07	1742.82
670.27	1796.07
670.46	1703.91
670.66	1787.88
670.85	1689.57
671.04	1722.34
671.24	1794.02
671.43	1748.97
671.62	1712.10
671.82	1767.40
672.01	1695.72
672.21	1679.33
672.40	1769.44
672.59	1757.16
672.79	1722.34
672.98	1736.68
673.17	1841.12
673.37	1800.16
673.56	1812.45
673.76	1796.07
673.95	1785.83
674.14	1810.40
674.34	1761.25
674.53	1671.14
674.72	1744.87
674.92	1648.61
675.11	1818.60
675.30	1796.07
675.50	1677.29
675.69	1646.57
675.89	1734.63
676.08	1794.02
676.27	1898.47
676.47	1734.63
676.66	1730.53
676.85	1763.30
677.05	1701.86
677.24	1722.34
677.43	1804.26
677.63	1710.05
677.82	1832.93
678.01	1722.34
678.21	1724.39
678.40	1777.64
678.59	1736.68
678.79	1650.66
678.98	1654.76
679.17	1777.64
679.37	1656.81
679.56	1728.49
679.75	1691.62
679.95	1693.67
680.14	1748.97
680.33	1796.07
680.53	1785.83
680.72	1693.67
680.91	1824.74
681.11	1722.34
681.30	1708.01
681.49	1783.78
681.69	1802.21
681.88	1775.59
682.07	1685.48
682.26	1781.73
682.46	1775.59
682.65	1667.05
682.84	1771.49
683.04	1748.97
683.23	1738.73
683.42	1660.90
683.62	1736.68
683.81	1652.71
684.00	1785.83
684.20	1630.18
684.39	1710.05
684.58	1703.91
684.77	1716.20
684.97	1759.21
685.16	1669.09
685.35	1753.06
685.55	1705.96
685.74	1683.43
685.93	1781.73
686.12	1771.49
686.32	1751.01
686.51	1808.36
686.70	1732.58
686.90	1751.01
687.09	1796.07
687.28	1744.87
687.47	1851.36
687.67	1722.34
687.86	1699.81
688.05	1787.88
688.25	1810.40
688.44	1691.62
688.63	1820.64
688.82	1660.90
689.02	1765.35
689.21	1761.25
689.40	1755.11
689.59	1613.80
689.79	1828.84
689.98	1839.08
690.17	1771.49
690.36	1705.96
690.56	1771.49
690.75	1849.32
690.94	1777.64
691.13	1767.40
691.33	1755.11
691.52	1755.11
691.71	1753.06
691.90	1716.20
692.10	1648.61
692.29	1738.73
692.48	1746.92
692.67	1634.28
692.87	1720.29
693.06	1699.81
693.25	1734.63
693.44	1812.45
693.64	1779.68
693.83	1728.49
694.02	1759.21
694.21	1720.29
694.40	1771.49
694.60	1722.34
694.79	1705.96
694.98	1724.39
695.17	1710.05
695.37	1804.26
695.56	1691.62
695.75	1740.77
695.94	1826.79
696.13	1675.24
696.33	1722.34
696.52	1705.96
696.71	1787.88
696.90	1644.52
697.10	1716.20
697.29	1730.53
697.48	1753.06
697.67	1660.90
697.86	1755.11
698.06	1662.95
698.25	1744.87
698.44	1730.53
698.63	1730.53
698.82	1818.60
699.02	1632.23
699.21	1748.97
699.40	1726.44
699.59	1783.78
699.78	1769.44
699.98	1765.35
700.17	1644.52
700.36	1753.06
700.55	1730.53
700.74	1703.91
700.93	1654.76
701.13	1652.71
701.32	1746.92
701.51	1769.44
701.70	1761.25
701.89	1785.83
702.09	1787.88
702.28	1779.68
702.47	1730.53
702.66	1771.49
702.85	1736.68
703.04	1701.86
703.24	1724.39
703.43	1753.06
703.62	1718.25
703.81	1826.79
704.00	1769.44
704.19	1763.30
704.39	1724.39
704.58	1722.34
704.77	1761.25
704.96	1783.78
705.15	1742.82
705.34	1738.73
705.54	1714.15
705.73	1726.44
705.92	1634.28
706.11	1736.68
706.30	1851.36
706.49	1759.21
706.68	1656.81
706.88	1677.29
707.07	1718.25
707.26	1744.87
707.45	1718.25
707.64	1712.10
707.83	1746.92
708.02	1693.67
708.22	1787.88
708.41	1718.25
708.60	1722.34
708.79	1695.72
708.98	1761.25
709.17	1773.54
709.36	1693.67
709.55	1705.96
709.75	1751.01
709.94	1617.90
710.13	1785.83
710.32	1814.50
710.51	1775.59
710.70	1765.35
710.89	1775.59
711.08	1751.01
711.27	1761.25
711.47	1744.87
711.66	1744.87
711.85	1763.30
712.04	1757.16
712.23	1665.00
712.42	1736.68
712.61	1738.73
712.80	1736.68
712.99	1804.26
713.19	1742.82
713.38	1701.86
713.57	1730.53
713.76	1720.29
713.95	1701.86
714.14	1734.63
714.33	1779.68
714.52	1695.72
714.71	1675.24
714.90	1777.64
715.09	1699.81
715.28	1720.29
715.48	1773.54
715.67	1744.87
715.86	1781.73
716.05	1742.82
716.24	1740.77
716.43	1726.44
716.62	1789.92
716.81	1761.25
717.00	1849.32
717.19	1730.53
717.38	1720.29
717.57	1796.07
717.76	1794.02
717.96	1712.10
718.15	1777.64
718.34	1726.44
718.53	1730.53
718.72	1787.88
718.91	1703.91
719.10	1761.25
719.29	1724.39
719.48	1722.34
719.67	1796.07
719.86	1867.75
720.05	1773.54
720.24	1757.16
720.43	1710.05
720.62	1718.25
720.81	1742.82
721.00	1695.72
721.19	1808.36
721.38	1654.76
721.57	1720.29
721.77	1787.88
721.96	1703.91
722.15	1742.82
722.34	1736.68
722.53	1722.34
722.72	1722.34
722.91	1685.48
723.10	1779.68
723.29	1701.86
723.48	1783.78
723.67	1763.30
723.86	1744.87
724.05	1687.53
724.24	1777.64
724.43	1724.39
724.62	1669.09
724.81	1705.96
725.00	1701.86
725.19	1777.64
725.38	1759.21
725.57	1746.92
725.76	1738.73
725.95	1646.57
726.14	1794.02
726.33	1767.40
726.52	1761.25
726.71	1722.34
726.90	1703.91
727.09	1757.16
727.28	1683.43
727.47	1751.01
727.66	1726.44
727.85	1736.68
728.04	1775.59
728.23	1660.90
728.42	1781.73
728.61	1771.49
728.80	1820.64
728.99	1740.77
729.18	1705.96
729.37	1767.40
729.56	1787.88
729.75	1765.35
729.94	1671.14
730.13	1753.06
730.32	1726.44
730.51	1720.29
730.70	1746.92
730.89	1751.01
731.08	1830.88
731.27	1712.10
731.46	1771.49
731.65	1714.15
731.84	1740.77
732.03	1695.72
732.21	1708.01
732.40	1843.17
732.59	1806.31
732.78	1783.78
732.97	1787.88
733.16	1761.25
733.35	1759.21
733.54	1718.25
733.73	1701.86
733.92	1767.40
734.11	1777.64
734.30	1701.86
734.49	1734.63
734.68	1720.29
734.87	1699.81
735.06	1726.44
735.25	1677.29
735.44	1677.29
735.63	1669.09
735.81	1875.94
736.00	1861.60
736.19	1732.58
736.38	1734.63
736.57	1759.21
736.76	1773.54
736.95	1720.29
737.14	1665.00
737.33	1716.20
737.52	1662.95
737.71	1611.75
737.90	1667.05
738.09	1689.57
738.28	1730.53
738.46	1720.29
738.65	1683.43
738.84	1699.81
739.03	1791.97
739.22	1710.05
739.41	1863.65
739.60	1804.26
739.79	1699.81
739.98	1681.38
740.17	1722.34
740.36	1677.29
740.54	1712.10
740.73	1691.62
740.92	1783.78
741.11	1681.38
741.30	1800.16
741.49	1734.63
741.68	1732.58
741.87	1791.97
742.06	1810.40
742.24	1738.73
742.43	1757.16
742.62	1755.11
742.81	1818.60
743.00	1773.54
743.19	1699.81
743.38	1691.62
743.57	1849.32
743.76	1644.52
743.94	1847.27
744.13	1738.73
744.32	1769.44
744.51	1693.67
744.70	1701.86
744.89	1681.38
745.08	1753.06
745.26	1722.34
745.45	1751.01
745.64	1710.05
745.83	1699.81
746.02	1744.87
746.21	1679.33
746.40	1791.97
746.58	1781.73
746.77	1753.06
746.96	1677.29
747.15	1685.48
747.34	1861.60
747.53	1669.09
747.72	1796.07
747.90	1673.19
748.09	1695.72
748.28	1734.63
748.47	1677.29
748.66	1652.71
748.85	1785.83
749.03	1726.44
749.22	1775.59
749.41	1724.39
749.60	1759.21
749.79	1728.49
749.98	1736.68
750.16	1783.78
750.35	1697.77
750.54	1646.57
750.73	1734.63
750.92	1714.15
751.11	1761.25
751.29	1710.05
751.48	1726.44
751.67	1818.60
751.86	1722.34
752.05	1718.25
752.24	1693.67
752.42	1767.40
752.61	1710.05
752.80	1746.92
752.99	1767.40
753.18	1769.44
753.36	1785.83
753.55	1847.27
753.74	1736.68
753.93	1783.78
754.12	1789.92
754.30	1726.44
754.49	1806.31
754.68	1716.20
754.87	1789.92
755.06	1693.67
755.24	1699.81
755.43	1791.97
755.62	1726.44
755.81	1779.68
755.99	1753.06
756.18	1710.05
756.37	1654.76
756.56	1611.75
756.75	1689.57
756.93	1744.87
757.12	1767.40
757.31	1656.81
757.50	1730.53
757.68	1744.87
757.87	1767.40
758.06	1718.25
758.25	1671.14
758.44	1761.25
758.62	1693.67
758.81	1712.10
759.00	1685.48
759.19	1734.63
759.37	1742.82
759.56	1689.57
759.75	1701.86
759.94	1751.01
760.12	1863.65
760.31	1765.35
760.50	1710.05
760.69	1763.30
760.87	1724.39
761.06	1775.59
761.25	1751.01
761.44	1742.82
761.62	1791.97
761.81	1675.24
762.00	1695.72
762.19	1853.41
762.37	1751.01
762.56	1732.58
762.75	1710.05
762.94	1710.05
763.12	1757.16
763.31	1761.25
763.50	1716.20
763.68	1748.97
763.87	1681.38
764.06	1746.92
764.25	1710.05
764.43	1757.16
764.62	1640.42
764.81	1699.81
764.99	1763.30
765.18	1722.34
765.37	1736.68
765.56	1705.96
765.74	1718.25
765.93	1726.44
766.12	1761.25
766.30	1710.05
766.49	1673.19
766.68	1685.48
766.87	1767.40
767.05	1667.05
767.24	1716.20
767.43	1794.02
767.61	1781.73
767.80	1787.88
767.99	1689.57
768.17	1814.50
768.36	1728.49
768.55	1734.63
768.73	1757.16
768.92	1693.67
769.11	1812.45
769.30	1658.85
769.48	1699.81
769.67	1705.96
769.86	1726.44
770.04	1605.61
770.23	1665.00
770.42	1718.25
770.60	1691.62
770.79	1646.57
770.98	1716.20
771.16	1701.86
771.35	1759.21
771.54	1665.00
771.72	1820.64
771.91	1705.96
772.10	1662.95
772.28	1791.97
772.47	1697.77
772.66	1777.64
772.84	1783.78
773.03	1744.87
773.22	1755.11
773.40	1714.15
773.59	1724.39
773.77	1730.53
773.96	1755.11
774.15	1742.82
774.33	1689.57
774.52	1693.67
774.71	1632.23
774.89	1746.92
775.08	1802.21
775.27	1695.72
775.45	1785.83
775.64	1736.68
775.83	1732.58
776.01	1638.38
776.20	1744.87
776.38	1718.25
776.57	1662.95
776.76	1585.13
776.94	1751.01
777.13	1806.31
777.32	1730.53
777.50	1589.22
777.69	1638.38
777.87	1654.76
778.06	1660.90
778.25	1687.53
778.43	1685.48
778.62	1734.63
778.80	1734.63
778.99	1710.05
779.18	1726.44
779.36	1714.15
779.55	1677.29
779.73	1763.30
779.92	1740.77
780.11	1759.21
780.29	1751.01
780.48	1685.48
780.66	1736.68
780.85	1675.24
781.04	1646.57
781.22	1789.92
781.41	1685.48
781.59	1681.38
781.78	1724.39
781.97	1703.91
782.15	1669.09
782.34	1701.86
782.52	1722.34
782.71	1669.09
782.89	1779.68
783.08	1677.29
783.27	1652.71
783.45	1671.14
783.64	1816.55
783.82	1689.57
784.01	1665.00
784.19	1646.57
784.38	1701.86
784.57	1742.82
784.75	1648.61
784.94	1783.78
785.12	1800.16
785.31	1734.63
785.49	1648.61
785.68	1703.91
785.86	1748.97
786.05	1681.38
786.24	1736.68
786.42	1708.01
786.61	1710.05
786.79	1675.24
786.98	1714.15
787.16	1730.53
787.35	1685.48
787.53	1738.73
787.72	1656.81
787.90	1734.63
788.09	1712.10
788.28	1697.77
788.46	1734.63
788.65	1763.30
788.83	1753.06
789.02	1728.49
789.20	1757.16
789.39	1712.10
789.57	1699.81
789.76	1767.40
789.94	1767.40
790.13	1828.84
790.31	1599.46
790.50	1679.33
790.68	1800.16
790.87	1734.63
791.05	1673.19
791.24	1648.61
791.42	1718.25
791.61	1652.71
791.79	1724.39
791.98	1726.44
792.16	1722.34
792.35	1834.98
792.53	1834.98
792.72	1742.82
792.90	1681.38
793.09	1660.90
793.27	1701.86
793.46	1636.33
793.64	1791.97
793.83	1746.92
794.01	1777.64
794.20	1728.49
794.38	1669.09
794.57	1763.30
794.75	1726.44
794.94	1652.71
795.12	1804.26
795.31	1705.96
795.49	1730.53
795.68	1730.53
795.86	1734.63
796.05	1730.53
796.23	1685.48
796.42	1693.67
796.60	1783.78
796.78	1681.38
796.97	1728.49
797.15	1722.34
797.34	1751.01
797.52	1724.39
797.71	1619.94
797.89	1740.77
798.08	1695.72
798.26	1744.87
798.45	1689.57
798.63	1742.82
798.81	1783.78
799.00	1763.30
799.18	1660.90
799.37	1738.73
799.55	1742.82
799.74	1632.23
799.92	1656.81
800.11	1691.62
800.29	1669.09
800.47	1667.05
800.66	1753.06
800.84	1710.05
801.03	1705.96
801.21	1667.05
801.40	1716.20
801.58	1738.73
801.76	1742.82
801.95	1681.38
802.13	1765.35
802.32	1730.53
802.50	1677.29
802.69	1638.38
802.87	1697.77
803.05	1619.94
803.24	1695.72
803.42	1740.77
803.61	1718.25
803.79	1687.53
803.97	1656.81
804.16	1673.19
804.34	1644.52
804.53	1644.52
804.71	1654.76
804.89	1755.11
805.08	1773.54
805.26	1732.58
805.45	1708.01
805.63	1689.57
805.81	1695.72
806.00	1701.86
806.18	1763.30
806.37	1712.10
806.55	1728.49
806.73	1734.63
806.92	1806.31
807.10	1648.61
807.28	1726.44
807.47	1742.82
807.65	1675.24
807.84	1748.97
808.02	1714.15
808.20	1687.53
808.39	1748.97
808.57	1720.29
808.75	1628.14
808.94	1638.38
809.12	1677.29
809.31	1693.67
809.49	1734.63
809.67	1673.19
809.86	1751.01
810.04	1777.64
810.22	1644.52
810.41	1595.37
810.59	1685.48
810.77	1712.10
810.96	1646.57
811.14	1714.15
811.32	1726.44
811.51	1716.20
811.69	1581.03
811.87	1679.33
812.06	1689.57
812.24	1632.23
812.42	1681.38
812.61	1724.39
812.79	1732.58
812.97	1753.06
813.16	1783.78
813.34	1742.82
813.52	1695.72
813.71	1621.99
813.89	1748.97
814.07	1701.86
814.26	1710.05
814.44	1683.43
814.62	1720.29
814.81	1718.25
814.99	1654.76
815.17	2045.92
815.36	1671.14
815.54	1722.34
815.72	1660.90
815.91	1646.57
816.09	1697.77
816.27	1718.25
816.45	1613.80
816.64	1679.33
816.82	1662.95
817.00	1810.40
817.19	1681.38
817.37	1650.66
817.55	1677.29
817.74	1685.48
817.92	1630.18
818.10	1695.72
818.28	1703.91
818.47	1677.29
818.65	1689.57
818.83	1597.42
819.02	1714.15
819.20	1742.82
819.38	1722.34
819.56	1742.82
819.75	1673.19
819.93	1720.29
820.11	1671.14
820.29	1716.20
820.48	1681.38
820.66	1662.95
820.84	1665.00
821.03	1732.58
821.21	1748.97
821.39	1867.75
821.57	1691.62
821.76	1705.96
821.94	1669.09
822.12	1656.81
822.30	1603.56
822.49	1708.01
822.67	1687.53
822.85	1654.76
823.03	1734.63
823.22	1665.00
823.40	1726.44
823.58	1601.51
823.76	1785.83
823.95	1710.05
824.13	1644.52
824.31	1693.67
824.49	1687.53
824.68	1726.44
824.86	1675.24
825.04	1697.77
825.22	1734.63
825.40	1693.67
825.59	1615.85
825.77	1753.06
825.95	1734.63
826.13	1644.52
826.32	1671.14
826.50	1728.49
826.68	1734.63
826.86	1597.42
827.04	1660.90
827.23	1757.16
827.41	1671.14
827.59	1669.09
827.77	1726.44
827.95	1701.86
828.14	1638.38
828.32	1652.71
828.50	1642.47
828.68	1644.52
828.86	1511.40
829.05	1632.23
829.23	1734.63
829.41	1632.23
829.59	1722.34
829.77	1662.95
829.96	1710.05
830.14	1769.44
830.32	1646.57
830.50	1636.33
830.68	1638.38
830.87	1736.68
831.05	1624.04
831.23	1701.86
831.41	1685.48
831.59	1642.47
831.77	1744.87
831.96	1689.57
832.14	1685.48
832.32	1658.85
832.50	1705.96
832.68	1748.97
832.86	1712.10
833.05	1628.14
833.23	1710.05
833.41	1697.77
833.59	1710.05
833.77	1648.61
833.95	1656.81
834.14	1705.96
834.32	1660.90
834.50	1730.53
834.68	1640.42
834.86	1720.29
835.04	1669.09
835.22	1656.81
835.41	1662.95
835.59	1744.87
835.77	1691.62
835.95	1710.05
836.13	1660.90
836.31	1669.09
836.49	1638.38
836.67	1654.76
836.86	1677.29
837.04	1599.46
837.22	1650.66
837.40	1691.62
837.58	1722.34
837.76	1638.38
837.94	1759.21
838.12	1703.91
838.31	1697.77
838.49	1705.96
838.67	1644.52
838.85	1751.01
839.03	1642.47
839.21	1763.30
839.39	1693.67
839.57	1675.24
839.75	1669.09
839.94	1695.72
840.12	1712.10
840.30	1665.00
840.48	1718.25
840.66	1660.90
840.84	1761.25
841.02	1681.38
841.20	1744.87
841.38	1583.08
841.56	1767.40
841.74	1667.05
841.93	1705.96
842.11	1644.52
842.29	1685.48
842.47	1691.62
842.65	1701.86
842.83	1720.29
843.01	1601.51
843.19	1695.72
843.37	1665.00
843.55	1673.19
843.73	1679.33
843.91	1685.48
844.09	1703.91
844.28	1669.09
844.46	1734.63
844.64	1669.09
844.82	1615.85
845.00	1777.64
845.18	1632.23
845.36	1642.47
845.54	1689.57
845.72	1742.82
845.90	1720.29
846.08	1650.66
846.26	1720.29
846.44	1628.14
846.62	1662.95
846.80	1572.84
846.98	1697.77
847.16	1636.33
847.34	1605.61
847.52	1671.14
847.70	1650.66
847.88	1685.48
848.07	1648.61
848.25	1621.99
848.43	1673.19
848.61	1697.77
848.79	1652.71
848.97	1710.05
849.15	1757.16
849.33	1619.94
849.51	1648.61
849.69	1734.63
849.87	1669.09
850.05	1730.53
850.23	1644.52
850.41	1712.10
850.59	1712.10
850.77	1679.33
850.95	1638.38
851.13	1716.20
851.31	1697.77
851.49	1820.64
851.67	1667.05
851.85	1677.29
852.03	1763.30
852.21	1771.49
852.39	1677.29
852.57	1675.24
852.75	1628.14
852.93	1662.95
853.11	1646.57
853.29	1648.61
853.47	1712.10
853.65	1662.95
853.83	1591.27
854.01	1703.91
854.19	1714.15
854.37	1589.22
854.55	1642.47
854.73	1732.58
854.91	1710.05
855.08	1695.72
855.26	1742.82
855.44	1642.47
855.62	1689.57
855.80	1562.60
855.98	1683.43
856.16	1630.18
856.34	1656.81
856.52	1662.95
856.70	1603.56
856.88	1769.44
857.06	1662.95
857.24	1662.95
857.42	1640.42
857.60	1658.85
857.78	1746.92
857.96	1640.42
858.14	1701.86
858.32	1679.33
858.50	1701.86
858.68	1562.60
858.85	1597.42
859.03	1693.67
859.21	1691.62
859.39	1677.29
859.57	1650.66
859.75	1802.21
859.93	1730.53
860.11	1679.33
860.29	1669.09
860.47	1638.38
860.65	1681.38
860.83	1703.91
861.01	1687.53
861.18	1683.43
861.36	1677.29
861.54	1595.37
861.72	1724.39
861.90	1703.91
862.08	1677.29
862.26	1662.95
862.44	1699.81
862.62	1638.38
862.80	1683.43
862.98	1603.56
863.15	1714.15
863.33	1683.43
863.51	1695.72
863.69	1697.77
863.87	1617.90
864.05	1658.85
864.23	1728.49
864.41	1656.81
864.59	1605.61
864.76	1662.95
864.94	1662.95
865.12	1720.29
865.30	1589.22
865.48	1722.34
865.66	1693.67
865.84	1675.24
866.02	1656.81
866.19	1636.33
866.37	1654.76
866.55	1687.53
866.73	1638.38
866.91	1646.57
867.09	1748.97
867.27	1679.33
867.44	1716.20
867.62	1675.24
867.80	1755.11
867.98	1679.33
868.16	1615.85
868.34	1628.14
868.52	1646.57
868.69	1578.98
868.87	1708.01
869.05	1646.57
869.23	1697.77
869.41	1681.38
869.59	1632.23
869.76	1662.95
869.94	1714.15
870.12	1660.90
870.30	1699.81
870.48	1613.80
870.66	1583.08
870.83	1677.29
871.01	1703.91
871.19	1728.49
871.37	1867.75
871.55	1560.55
871.73	1703.91
871.90	1615.85
872.08	1673.19
872.26	1720.29
872.44	1689.57
872.62	1648.61
872.79	1605.61
872.97	1574.89
873.15	1693.67
873.33	1648.61
873.51	1669.09
873.68	1720.29
873.86	1675.24
874.04	1710.05
874.22	1677.29
874.40	1699.81
874.57	1642.47
874.75	1785.83
874.93	1662.95
875.11	1691.62
875.29	1712.10
875.46	1781.73
875.64	1640.42
875.82	1656.81
876.00	1718.25
876.17	1667.05
876.35	1628.14
876.53	1650.66
876.71	1685.48
876.89	1679.33
877.06	1701.86
877.24	1636.33
877.42	1642.47
877.60	1624.04
877.77	1736.68
877.95	1683.43
878.13	1640.42
878.31	1662.95
878.48	1685.48
878.66	1681.38
878.84	1699.81
879.02	1699.81
879.19	1714.15
879.37	1617.90
879.55	1662.95
879.73	1576.94
879.90	1765.35
880.08	1658.85
880.26	1763.30
880.44	1697.77
880.61	1654.76
880.79	1681.38
880.97	1701.86
881.15	1644.52
881.32	1660.90
881.50	1695.72
881.68	1654.76
881.85	1705.96
882.03	1619.94
882.21	1654.76
882.39	1681.38
882.56	1630.18
882.74	1710.05
882.92	1611.75
883.09	1558.50
883.27	1710.05
883.45	1628.14
883.63	1673.19
883.80	1669.09
883.98	1591.27
884.16	1611.75
884.33	1679.33
884.51	1652.71
884.69	1759.21
884.87	1609.70
885.04	1660.90
885.22	1751.01
885.40	1652.71
885.57	1669.09
885.75	1718.25
885.93	1687.53
886.10	1587.18
886.28	1587.18
886.46	1673.19
886.63	1609.70
886.81	1671.14
886.99	1730.53
887.16	1660.90
887.34	1581.03
887.52	1673.19
887.69	1617.90
887.87	1654.76
888.05	1626.09
888.22	1609.70
888.40	1624.04
888.58	1652.71
888.75	1642.47
888.93	1544.17
889.11	1660.90
889.28	1662.95
889.46	1697.77
889.64	1636.33
889.81	1593.32
889.99	1638.38
890.17	1677.29
890.34	1578.98
890.52	1638.38
890.70	1701.86
890.87	1693.67
891.05	1691.62
891.22	1740.77
891.40	1593.32
891.58	1630.18
891.75	1648.61
891.93	1781.73
892.11	1689.57
892.28	1675.24
892.46	1617.90
892.63	1634.28
892.81	1595.37
892.99	1621.99
893.16	1646.57
893.34	1576.94
893.52	1660.90
893.69	1671.14
893.87	1587.18
894.04	1677.29
894.22	1578.98
894.40	1611.75
894.57	1656.81
894.75	1546.22
894.92	1705.96
895.10	1628.14
895.28	1689.57
895.45	1644.52
895.63	1714.15
895.80	1640.42
895.98	1574.89
896.16	1654.76
896.33	1734.63
896.51	1630.18
896.68	1603.56
896.86	1638.38
897.04	1671.14
897.21	1673.19
897.39	1701.86
897.56	1564.65
897.74	1595.37
897.91	1648.61
898.09	1669.09
898.27	1621.99
898.44	1667.05
898.62	1665.00
898.79	1546.22
898.97	1671.14
899.14	1652.71
899.32	1640.42
899.49	1699.81
899.67	1787.88
899.85	1646.57
900.02	1693.67
900.20	1683.43
900.37	1669.09
900.55	1617.90
900.72	1644.52
900.90	1562.60
901.07	1636.33
901.25	1630.18
901.43	1732.58
901.60	1624.04
901.78	1628.14
901.95	1695.72
902.13	1619.94
902.30	1652.71
902.48	1679.33
902.65	1689.57
902.83	1728.49
903.00	1705.96
903.18	1650.66
903.35	1673.19
903.53	1669.09
903.70	1630.18
903.88	1687.53
904.05	1603.56
904.23	1683.43
904.40	1599.46
904.58	1587.18
904.75	1628.14
904.93	1722.34
905.10	1681.38
905.28	1671.14
905.45	1556.46
905.63	1656.81
905.80	1613.80
905.98	1734.63
906.15	1619.94
906.33	1705.96
906.50	1646.57
906.68	1681.38
906.85	1652.71
907.03	1683.43
907.20	1632.23
907.38	1685.48
907.55	1638.38
907.73	1738.73
907.90	1605.61
908.08	1609.70
908.25	1601.51
908.43	1548.26
908.60	1720.29
908.78	1693.67
908.95	1624.04
909.13	1673.19
909.30	1564.65
909.47	1628.14
909.65	1630.18
909.82	1632.23
910.00	1652.71
910.17	1701.86
910.35	1595.37
910.52	1728.49
910.70	1585.13
910.87	1601.51
911.05	1730.53
911.22	1693.67
911.39	1677.29
911.57	1681.38
911.74	1548.26
911.92	1652.71
912.09	1693.67
912.27	1734.63
912.44	1687.53
912.61	1646.57
912.79	1648.61
912.96	1605.61
913.14	1570.79
913.31	1667.05
913.49	1662.95
913.66	1634.28
913.83	1628.14
914.01	1687.53
914.18	1603.56
914.36	1673.19
914.53	1572.84
914.70	1583.08
914.88	1599.46
915.05	1716.20
915.23	1644.52
915.40	1632.23
915.58	1576.94
915.75	1652.71
915.92	1578.98
916.10	1759.21
916.27	1585.13
916.44	1685.48
916.62	1634.28
916.79	1662.95
916.97	1665.00
917.14	1648.61
917.31	1705.96
917.49	1662.95
917.66	1673.19
917.84	1714.15
918.01	1595.37
918.18	1781.73
918.36	1660.90
918.53	1660.90
918.70	1679.33
918.88	1718.25
919.05	1591.27
919.23	1675.24
919.40	1624.04
919.57	1589.22
919.75	1591.27
919.92	1621.99
920.09	1634.28
920.27	1722.34
920.44	1617.90
920.61	1652.71
920.79	1660.90
920.96	1693.67
921.13	1710.05
921.31	1525.74
921.48	1630.18
921.65	1705.96
921.83	1621.99
922.00	1609.70
922.17	1705.96
922.35	1599.46
922.52	1628.14
922.69	1587.18
922.87	1714.15
923.04	1640.42
923.21	1705.96
923.39	1660.90
923.56	1673.19
923.73	1591.27
923.91	1605.61
924.08	1542.12
924.25	1611.75
924.43	1675.24
924.60	1650.66
924.77	1636.33
924.95	1617.90
925.12	1646.57
925.29	1529.83
925.47	1683.43
925.64	1613.80
925.81	1642.47
925.98	1587.18
926.16	1691.62
926.33	1650.66
926.50	1570.79
926.68	1570.79
926.85	1615.85
927.02	1675.24
927.19	1601.51
927.37	1695.72
927.54	1619.94
927.71	1613.80
927.89	1605.61
928.06	1589.22
928.23	1685.48
928.40	1574.89
928.58	1611.75
928.75	1658.85
928.92	1640.42
929.09	1677.29
929.27	1597.42
929.44	1648.61
929.61	1718.25
929.79	1595.37
929.96	1681.38
930.13	1574.89
930.30	1662.95
930.48	1646.57
930.65	1583.08
930.82	1574.89
930.99	1621.99
931.17	1624.04
931.34	1621.99
931.51	1630.18
931.68	1540.07
931.85	1712.10
932.03	1591.27
932.20	1613.80
932.37	1624.04
932.54	1763.30
932.72	1636.33
932.89	1568.74
933.06	1673.19
933.23	1679.33
933.41	1652.71
933.58	1642.47
933.75	1632.23
933.92	1542.12
934.09	1654.76
934.27	1640.42
934.44	1581.03
934.61	1613.80
934.78	1578.98
934.95	1628.14
935.13	1603.56
935.30	1570.79
935.47	1626.09
935.64	1587.18
935.81	1595.37
935.99	1599.46
936.16	1601.51
936.33	1605.61
936.50	1660.90
936.67	1624.04
936.85	1654.76
937.02	1632.23
937.19	1685.48
937.36	1677.29
937.53	1609.70
937.71	1628.14
937.88	1656.81
938.05	1556.46
938.22	1642.47
938.39	1613.80
938.56	1595.37
938.74	1646.57
938.91	1589.22
939.08	1570.79
939.25	1593.32
939.42	1515.50
939.59	1705.96
939.77	1548.26
939.94	1628.14
940.11	1693.67
940.28	1619.94
940.45	1562.60
940.62	1597.42
940.79	1701.86
940.97	1550.31
941.14	1581.03
941.31	1697.77
941.48	1677.29
941.65	1599.46
941.82	1667.05
941.99	1667.05
942.17	1589.22
942.34	1619.94
942.51	1685.48
942.68	1611.75
942.85	1685.48
943.02	1554.41
943.19	1679.33
943.36	1660.90
943.54	1638.38
943.71	1636.33
943.88	1607.66
944.05	1648.61
944.22	1667.05
944.39	1540.07
944.56	1636.33
944.73	1660.90
944.90	1636.33
945.08	1644.52
945.25	1554.41
945.42	1648.61
945.59	1603.56
945.76	1640.42
945.93	1626.09
946.10	1669.09
946.27	1599.46
946.44	1578.98
946.61	1593.32
946.78	1587.18
946.96	1552.36
947.13	1599.46
947.30	1607.66
947.47	1603.56
947.64	1671.14
947.81	1621.99
947.98	1628.14
948.15	1589.22
948.32	1574.89
948.49	1601.51
948.66	1640.42
948.83	1564.65
949.00	1660.90
949.17	1599.46
949.35	1568.74
949.52	1640.42
949.69	1585.13
949.86	1607.66
950.03	1554.41
950.20	1513.45
950.37	1640.42
950.54	1617.90
950.71	1589.22
950.88	1509.35
951.05	1652.71
951.22	1671.14
951.39	1669.09
951.56	1656.81
951.73	1591.27
951.90	1529.83
952.07	1638.38
952.24	1611.75
952.41	1642.47
952.58	1654.76
952.75	1648.61
952.92	1640.42
953.09	1648.61
953.26	1628.14
953.43	1656.81
953.60	1499.11
953.77	1669.09
953.94	1601.51
954.11	1677.29
954.28	1693.67
954.45	1615.85
954.62	1578.98
954.79	1595.37
954.96	1597.42
955.13	1714.15
955.30	1599.46
955.47	1636.33
955.64	1605.61
955.81	1597.42
955.98	1615.85
956.15	1636.33
956.32	1671.14
956.49	1603.56
956.66	1603.56
956.83	1646.57
957.00	1601.51
957.17	1611.75
957.34	1669.09
957.51	1544.17
957.68	1607.66
957.85	1611.75
958.02	1648.61
958.19	1609.70
958.36	1654.76
958.53	1611.75
958.70	1634.28
958.87	1574.89
959.04	1611.75
959.21	1572.84
959.38	1529.83
959.55	1628.14
959.72	1562.60
959.89	1603.56
960.06	1587.18
960.23	1652.71
960.39	1595.37
960.56	1613.80
960.73	1548.26
960.90	1550.31
961.07	1642.47
961.24	1601.51
961.41	1568.74
961.58	1597.42
961.75	1687.53
961.92	1636.33
962.09	1667.05
962.26	1529.83
962.43	1617.90
962.60	1611.75
962.76	1714.15
962.93	1632.23
963.10	1570.79
963.27	1603.56
963.44	1546.22
963.61	1583.08
963.78	1617.90
963.95	1550.31
964.12	1603.56
964.29	1531.88
964.46	1681.38
964.62	1628.14
964.79	1648.61
964.96	1538.02
965.13	1626.09
965.30	1609.70
965.47	1638.38
965.64	1654.76
965.81	1595.37
965.98	1644.52
966.14	1708.01
966.31	1636.33
966.48	1669.09
966.65	1535.98
966.82	1683.43
966.99	1556.46
967.16	1646.57
967.33	1662.95
967.49	1646.57
967.66	1578.98
967.83	1566.70
968.00	1578.98
968.17	1583.08
968.34	1630.18
968.51	1566.70
968.67	1591.27
968.84	1538.02
969.01	1560.55
969.18	1648.61
969.35	1544.17
969.52	1648.61
969.68	1607.66
969.85	1527.78
970.02	1669.09
970.19	1599.46
970.36	1601.51
970.53	1583.08
970.69	1599.46
970.86	1695.72
971.03	1587.18
971.20	1677.29
971.37	1540.07
971.54	1652.71
971.70	1615.85
971.87	1576.94
972.04	1581.03
972.21	1578.98
972.38	1644.52
972.55	1626.09
972.71	1638.38
972.88	1593.32
973.05	1521.64
973.22	1658.85
973.39	1679.33
973.55	1554.41
973.72	1546.22
973.89	1603.56
974.06	1581.03
974.23	1630.18
974.39	1624.04
974.56	1646.57
974.73	1630.18
974.90	1617.90
975.06	1632.23
975.23	1578.98
975.40	1646.57
975.57	1638.38
975.74	1613.80
975.90	1624.04
976.07	1646.57
976.24	1562.60
976.41	1632.23
976.57	1650.66
976.74	1617.90
976.91	1669.09
977.08	1615.85
977.24	1669.09
977.41	1585.13
977.58	1681.38
977.75	1636.33
977.92	1603.56
978.08	1611.75
978.25	1638.38
978.42	1583.08
978.58	1615.85
978.75	1712.10
978.92	1513.45
979.09	1630.18
979.25	1648.61
979.42	1570.79
979.59	1581.03
979.76	1619.94
979.92	1587.18
980.09	1634.28
980.26	1597.42
980.43	1619.94
980.59	1607.66
980.76	1589.22
980.93	1544.17
981.09	1574.89
981.26	1558.50
981.43	1531.88
981.60	1638.38
981.76	1562.60
981.93	1544.17
982.10	1531.88
982.26	1669.09
982.43	1607.66
982.60	1599.46
982.77	1587.18
982.93	1581.03
983.10	1578.98
983.27	1671.14
983.43	1652.71
983.60	1566.70
983.77	1556.46
983.93	1587.18
984.10	1716.20
984.27	1708.01
984.43	1646.57
984.60	1693.67
984.77	1603.56
984.93	1632.23
985.10	1591.27
985.27	1656.81
985.43	1624.04
985.60	1572.84
985.77	1605.61
985.93	1621.99
986.10	1546.22
986.27	1611.75
986.43	1572.84
986.60	1626.09
986.77	1621.99
986.93	1581.03
987.10	1583.08
987.27	1679.33
987.43	1591.27
987.60	1568.74
987.77	1587.18
987.93	1648.61
988.10	1533.93
988.27	1550.31
988.43	1628.14
988.60	1611.75
988.76	1570.79
988.93	1644.52
989.10	1556.46
989.26	1587.18
989.43	1593.32
989.60	1644.52
989.76	1599.46
989.93	1617.90
990.09	1540.07
990.26	1621.99
990.43	1566.70
990.59	1533.93
990.76	1609.70
990.92	1626.09
991.09	1578.98
991.26	1621.99
991.42	1503.21
991.59	1652.71
991.76	1621.99
991.92	1726.44
992.09	1609.70
992.25	1624.04
992.42	1634.28
992.58	1615.85
992.75	1626.09
992.92	1648.61
993.08	1640.42
993.25	1697.77
993.41	1599.46
993.58	1628.14
993.75	1726.44
993.91	1665.00
994.08	1578.98
994.24	1689.57
994.41	1607.66
994.57	1648.61
994.74	1574.89
994.91	1609.70
995.07	1554.41
995.24	1621.99
995.40	1624.04
995.57	1578.98
995.73	1554.41
995.90	1615.85
996.06	1603.56
996.23	1665.00
996.40	1587.18
996.56	1560.55
996.73	1693.67
996.89	1648.61
997.06	1619.94
997.22	1624.04
997.39	1617.90
997.55	1591.27
997.72	1529.83
997.88	1662.95
998.05	1574.89
998.21	1683.43
998.38	1613.80
998.54	1595.37
998.71	1628.14
998.87	1566.70
999.04	1595.37
999.21	1755.11
999.37	1609.70
999.54	1718.25
999.70	1529.83
999.87	1720.29
1000.03	1564.65
1000.20	1660.90
1000.36	1566.70
1000.53	1589.22
1000.69	1589.22
1000.86	1611.75
1001.02	1572.84
1001.19	1611.75
1001.35	1611.75
1001.52	1609.70
1001.68	1554.41
1001.84	1605.61
1002.01	1538.02
1002.17	1660.90
1002.34	1521.64
1002.50	1605.61
1002.67	1558.50
1002.83	1632.23
1003.00	1597.42
1003.16	1617.90
1003.33	1552.36
1003.49	1621.99
1003.66	1603.56
1003.82	1644.52
1003.99	1585.13
1004.15	1562.60
1004.32	1560.55
1004.48	1599.46
1004.64	1546.22
1004.81	1695.72
1004.97	1630.18
1005.14	1615.85
1005.30	1619.94
1005.47	1613.80
1005.63	1669.09
1005.80	1628.14
1005.96	1591.27
1006.12	1566.70
1006.29	1619.94
1006.45	1734.63
1006.62	1626.09
1006.78	1652.71
1006.95	1591.27
1007.11	1626.09
1007.27	1654.76
1007.44	1632.23
1007.60	1587.18
1007.77	1605.61
1007.93	1581.03
1008.09	1572.84
1008.26	1531.88
1008.42	1716.20
1008.59	1632.23
1008.75	1587.18
1008.92	1650.66
1009.08	1581.03
1009.24	1722.34
1009.41	1564.65
1009.57	1578.98
1009.73	1583.08
1009.90	1636.33
1010.06	1658.85
1010.23	1626.09
1010.39	1576.94
1010.55	1636.33
1010.72	1599.46
1010.88	1601.51
1011.05	1624.04
1011.21	1648.61
1011.37	1587.18
1011.54	1695.72
1011.70	1630.18
1011.86	1554.41
1012.03	1603.56
1012.19	1587.18
1012.36	1597.42
1012.52	1628.14
1012.68	1548.26
1012.85	1607.66
1013.01	1572.84
1013.17	1583.08
1013.34	1540.07
1013.50	1634.28
1013.66	1599.46
1013.83	1599.46
1013.99	1535.98
1014.15	1621.99
1014.32	1601.51
1014.48	1529.83
1014.64	1603.56
1014.81	1574.89
1014.97	1615.85
1015.13	1691.62
1015.30	1656.81
1015.46	1552.36
1015.62	1601.51
1015.79	1554.41
1015.95	1621.99
1016.11	1611.75
1016.28	1570.79
1016.44	1644.52
1016.60	1566.70
1016.77	1630.18
1016.93	1667.05
1017.09	1546.22
1017.26	1533.93
1017.42	1595.37
1017.58	1615.85
1017.74	1595.37
1017.91	1613.80
1018.07	1667.05
1018.23	1677.29
1018.40	1599.46
1018.56	1538.02
1018.72	1538.02
1018.88	1583.08
1019.05	1570.79
1019.21	1617.90
1019.37	1652.71
1019.54	1564.65
1019.70	1601.51
1019.86	1529.83
1020.02	1562.60
1020.19	1603.56
1020.35	1599.46
1020.51	1589.22
1020.68	1533.93
1020.84	1570.79
1021.00	1632.23
1021.16	1595.37
1021.33	1691.62
1021.49	1595.37
1021.65	1523.69
1021.81	1603.56
1021.98	1583.08
1022.14	1673.19
1022.30	1574.89
1022.46	1615.85
1022.63	1548.26
1022.79	1675.24
1022.95	1597.42
1023.11	1529.83
1023.27	1603.56
1023.44	1603.56
1023.60	1513.45
1023.76	1558.50
1023.92	1669.09
1024.09	1638.38
1024.25	1558.50
1024.41	1767.40
1024.57	1675.24
1024.74	1533.93
1024.90	1605.61
1025.06	1654.76
1025.22	1560.55
1025.38	1593.32
1025.55	1632.23
1025.71	1624.04
1025.87	1550.31
1026.03	1546.22
1026.19	1558.50
1026.36	1564.65
1026.52	1646.57
1026.68	1533.93
1026.84	1558.50
1027.00	1574.89
1027.17	1642.47
1027.33	1640.42
1027.49	1656.81
1027.65	1562.60
1027.81	1576.94
1027.97	1646.57
1028.14	1587.18
1028.30	1689.57
1028.46	1597.42
1028.62	1531.88
1028.78	1611.75
1028.94	1628.14
1029.11	1628.14
1029.27	1617.90
1029.43	1599.46
1029.59	1654.76
1029.75	1546.22
1029.91	1624.04
1030.08	1658.85
1030.24	1562.60
1030.40	1531.88
1030.56	1564.65
1030.72	1621.99
1030.88	1607.66
1031.04	1595.37
1031.21	1646.57
1031.37	1540.07
1031.53	1632.23
1031.69	1607.66
1031.85	1630.18
1032.01	1658.85
1032.17	1611.75
1032.34	1669.09
1032.50	1613.80
1032.66	1525.74
1032.82	1585.13
1032.98	1585.13
1033.14	1677.29
1033.30	1642.47
1033.46	1654.76
1033.62	1611.75
1033.79	1644.52
1033.95	1646.57
1034.11	1705.96
1034.27	1634.28
1034.43	1540.07
1034.59	1554.41
1034.75	1617.90
1034.91	1624.04
1035.07	1669.09
1035.23	1621.99
1035.40	1626.09
1035.56	1621.99
1035.72	1509.35
1035.88	1621.99
1036.04	1581.03
1036.20	1628.14
>>>>>End Processed Spectral Data<<<<<
