SpectraSuite Data File
++++++++++++++++++++++++++++++++++++
Date: Fri May 12 15:37:16 EDT 2017
User: jcherston
Dark Spectrum Present: Yes
Reference Spectrum Present: Yes
Number of Sampled Component Spectra: 1
Spectrometers: USB4F06975
Integration Time (usec): 100000 (USB4F06975)
Spectra Averaged: 1 (USB4F06975)
Boxcar Smoothing: 0 (USB4F06975)
Correct for Electrical Dark: No (USB4F06975)
Strobe/Lamp Enabled: No (USB4F06975)
Correct for Detector Non-linearity: No (USB4F06975)
Correct for Stray Light: No (USB4F06975)
Number of Pixels in Processed Spectrum: 3648
>>>>>Begin Processed Spectral Data<<<<<
346.57	1523.69
346.78	1523.69
346.99	1523.69
347.20	1480.68
347.41	1413.10
347.62	1583.08
347.83	1619.94
348.04	1591.27
348.25	1681.38
348.46	1679.33
348.67	1636.33
348.88	1595.37
349.09	1718.25
349.30	1595.37
349.51	1619.94
349.72	1617.90
349.93	1607.66
350.14	1630.18
350.35	1576.94
350.56	1589.22
350.77	1724.39
350.98	1636.33
351.19	1576.94
351.40	1574.89
351.61	1677.29
351.82	1548.26
352.03	1574.89
352.24	1654.76
352.45	1619.94
352.66	1585.13
352.87	1617.90
353.08	1603.56
353.29	1611.75
353.50	1687.53
353.71	1624.04
353.92	1552.36
354.13	1638.38
354.34	1581.03
354.55	1603.56
354.76	1560.55
354.97	1630.18
355.18	1619.94
355.39	1589.22
355.60	1679.33
355.80	1599.46
356.01	1509.35
356.22	1652.71
356.43	1615.85
356.64	1636.33
356.85	1619.94
357.06	1658.85
357.27	1595.37
357.48	1593.32
357.69	1599.46
357.90	1589.22
358.11	1595.37
358.32	1599.46
358.53	1583.08
358.74	1572.84
358.95	1640.42
359.16	1570.79
359.37	1572.84
359.58	1599.46
359.79	1595.37
360.00	1583.08
360.21	1619.94
360.42	1652.71
360.63	1568.74
360.84	1654.76
361.05	1652.71
361.26	1611.75
361.46	1621.99
361.67	1597.42
361.88	1605.61
362.09	1511.40
362.30	1628.14
362.51	1560.55
362.72	1597.42
362.93	1583.08
363.14	1611.75
363.35	1611.75
363.56	1587.18
363.77	1609.70
363.98	1615.85
364.19	1687.53
364.40	1562.60
364.61	1546.22
364.82	1562.60
365.03	1662.95
365.24	1511.40
365.44	1570.79
365.65	1554.41
365.86	1712.10
366.07	1628.14
366.28	1578.98
366.49	1667.05
366.70	1583.08
366.91	1607.66
367.12	1564.65
367.33	1644.52
367.54	1624.04
367.75	1581.03
367.96	1597.42
368.17	1640.42
368.38	1628.14
368.58	1583.08
368.79	1656.81
369.00	1619.94
369.21	1665.00
369.42	1650.66
369.63	1654.76
369.84	1634.28
370.05	1628.14
370.26	1501.16
370.47	1624.04
370.68	1634.28
370.89	1642.47
371.09	1628.14
371.30	1662.95
371.51	1562.60
371.72	1574.89
371.93	1636.33
372.14	1648.61
372.35	1662.95
372.56	1509.35
372.77	1480.68
372.98	1529.83
373.19	1597.42
373.40	1603.56
373.60	1542.12
373.81	1597.42
374.02	1671.14
374.23	1531.88
374.44	1581.03
374.65	1597.42
374.86	1636.33
375.07	1533.93
375.28	1595.37
375.49	1646.57
375.69	1601.51
375.90	1609.70
376.11	1517.54
376.32	1560.55
376.53	1581.03
376.74	1554.41
376.95	1568.74
377.16	1570.79
377.37	1540.07
377.58	1548.26
377.78	1501.16
377.99	1572.84
378.20	1630.18
378.41	1730.53
378.62	1611.75
378.83	1570.79
379.04	1613.80
379.25	1726.44
379.46	1601.51
379.66	1583.08
379.87	1626.09
380.08	1648.61
380.29	1648.61
380.50	1650.66
380.71	1603.56
380.92	1558.50
381.13	1546.22
381.33	1585.13
381.54	1624.04
381.75	1613.80
381.96	1611.75
382.17	1667.05
382.38	1644.52
382.59	1640.42
382.80	1605.61
383.00	1667.05
383.21	1583.08
383.42	1523.69
383.63	1556.46
383.84	1652.71
384.05	1576.94
384.26	1617.90
384.47	1617.90
384.67	1619.94
384.88	1630.18
385.09	1589.22
385.30	1611.75
385.51	1636.33
385.72	1613.80
385.93	1552.36
386.13	1591.27
386.34	1634.28
386.55	1650.66
386.76	1566.70
386.97	1628.14
387.18	1546.22
387.39	1552.36
387.59	1642.47
387.80	1574.89
388.01	1638.38
388.22	1621.99
388.43	1689.57
388.64	1566.70
388.85	1572.84
389.05	1583.08
389.26	1652.71
389.47	1583.08
389.68	1646.57
389.89	1591.27
390.10	1607.66
390.31	1581.03
390.51	1527.78
390.72	1570.79
390.93	1640.42
391.14	1656.81
391.35	1570.79
391.56	1617.90
391.76	1644.52
391.97	1665.00
392.18	1593.32
392.39	1632.23
392.60	1658.85
392.81	1554.41
393.01	1531.88
393.22	1636.33
393.43	1617.90
393.64	1501.16
393.85	1662.95
394.06	1540.07
394.26	1636.33
394.47	1564.65
394.68	1665.00
394.89	1585.13
395.10	1595.37
395.31	1554.41
395.51	1644.52
395.72	1546.22
395.93	1650.66
396.14	1615.85
396.35	1619.94
396.55	1624.04
396.76	1621.99
396.97	1617.90
397.18	1550.31
397.39	1634.28
397.60	1564.65
397.80	1572.84
398.01	1638.38
398.22	1615.85
398.43	1595.37
398.64	1556.46
398.84	1564.65
399.05	1587.18
399.26	1671.14
399.47	1552.36
399.68	1615.85
399.88	1644.52
400.09	1589.22
400.30	1599.46
400.51	1591.27
400.72	1511.40
400.92	1497.07
401.13	1558.50
401.34	1632.23
401.55	1697.77
401.76	1636.33
401.96	1562.60
402.17	1609.70
402.38	1560.55
402.59	1667.05
402.80	1964.00
403.00	1581.03
403.21	1587.18
403.42	1656.81
403.63	1621.99
403.84	1560.55
404.04	1669.09
404.25	1533.93
404.46	1593.32
404.67	1611.75
404.88	1617.90
405.08	1685.48
405.29	1615.85
405.50	1669.09
405.71	1652.71
405.91	1589.22
406.12	1546.22
406.33	1611.75
406.54	1583.08
406.75	1595.37
406.95	1572.84
407.16	1583.08
407.37	1609.70
407.58	1644.52
407.78	1867.75
407.99	1619.94
408.20	1550.31
408.41	1701.86
408.62	1615.85
408.82	1538.02
409.03	1492.97
409.24	1619.94
409.45	1603.56
409.65	1578.98
409.86	1554.41
410.07	1593.32
410.28	1533.93
410.48	1615.85
410.69	1599.46
410.90	1628.14
411.11	1660.90
411.31	1632.23
411.52	1628.14
411.73	1644.52
411.94	1574.89
412.14	1689.57
412.35	1673.19
412.56	1572.84
412.77	1521.64
412.98	1533.93
413.18	1540.07
413.39	1695.72
413.60	1566.70
413.81	1597.42
414.01	1607.66
414.22	1562.60
414.43	1605.61
414.64	1566.70
414.84	1578.98
415.05	1519.59
415.26	1548.26
415.46	1583.08
415.67	1603.56
415.88	1548.26
416.09	1525.74
416.29	1550.31
416.50	1595.37
416.71	1617.90
416.92	1548.26
417.12	1587.18
417.33	1572.84
417.54	1701.86
417.75	1562.60
417.95	1572.84
418.16	1669.09
418.37	1529.83
418.58	1581.03
418.78	1566.70
418.99	1630.18
419.20	1540.07
419.40	1636.33
419.61	1603.56
419.82	1640.42
420.03	1507.30
420.23	1687.53
420.44	1583.08
420.65	1583.08
420.85	1570.79
421.06	1597.42
421.27	1605.61
421.48	1712.10
421.68	1568.74
421.89	1546.22
422.10	1617.90
422.30	1628.14
422.51	1546.22
422.72	1486.83
422.93	1564.65
423.13	1654.76
423.34	1650.66
423.55	1570.79
423.75	1654.76
423.96	1619.94
424.17	1626.09
424.38	1609.70
424.58	1517.54
424.79	1607.66
425.00	1613.80
425.20	1621.99
425.41	1636.33
425.62	1599.46
425.83	1597.42
426.03	1591.27
426.24	1628.14
426.45	1605.61
426.65	1564.65
426.86	1558.50
427.07	1638.38
427.27	1636.33
427.48	1613.80
427.69	1617.90
427.89	1578.98
428.10	1581.03
428.31	1568.74
428.52	1703.91
428.72	1599.46
428.93	1654.76
429.14	1648.61
429.34	1646.57
429.55	1632.23
429.76	1597.42
429.96	1548.26
430.17	1677.29
430.38	1671.14
430.58	1525.74
430.79	1638.38
431.00	1613.80
431.20	1638.38
431.41	1578.98
431.62	1628.14
431.82	1583.08
432.03	1572.84
432.24	1544.17
432.44	1718.25
432.65	1531.88
432.86	1675.24
433.06	1564.65
433.27	1628.14
433.48	1679.33
433.68	1538.02
433.89	1558.50
434.10	1675.24
434.30	1703.91
434.51	1619.94
434.72	1585.13
434.92	1554.41
435.13	1646.57
435.34	1603.56
435.54	1597.42
435.75	1640.42
435.96	1558.50
436.16	1624.04
436.37	1474.54
436.58	1611.75
436.78	1636.33
436.99	1615.85
437.20	1673.19
437.40	1619.94
437.61	1644.52
437.82	1611.75
438.02	1613.80
438.23	1665.00
438.43	1710.05
438.64	1628.14
438.85	1646.57
439.05	1548.26
439.26	1685.48
439.47	1710.05
439.67	1535.98
439.88	1652.71
440.09	1591.27
440.29	1630.18
440.50	1576.94
440.71	1529.83
440.91	1560.55
441.12	1601.51
441.32	1558.50
441.53	1632.23
441.74	1542.12
441.94	1587.18
442.15	1533.93
442.36	1634.28
442.56	1605.61
442.77	1619.94
442.97	1603.56
443.18	1691.62
443.39	1652.71
443.59	1595.37
443.80	1552.36
444.01	1640.42
444.21	1652.71
444.42	1654.76
444.62	1488.87
444.83	1568.74
445.04	1558.50
445.24	1613.80
445.45	1642.47
445.66	1665.00
445.86	1611.75
446.07	1589.22
446.27	1574.89
446.48	1556.46
446.69	1546.22
446.89	1628.14
447.10	1597.42
447.30	1568.74
447.51	1681.38
447.72	1708.01
447.92	1685.48
448.13	1611.75
448.33	1597.42
448.54	1675.24
448.75	1544.17
448.95	1697.77
449.16	1611.75
449.36	1640.42
449.57	1599.46
449.78	1705.96
449.98	1615.85
450.19	1603.56
450.39	1628.14
450.60	1597.42
450.81	1542.12
451.01	1597.42
451.22	1628.14
451.42	1568.74
451.63	1611.75
451.84	1603.56
452.04	1572.84
452.25	1628.14
452.45	1628.14
452.66	1597.42
452.86	1589.22
453.07	1636.33
453.28	1566.70
453.48	1619.94
453.69	1578.98
453.89	1540.07
454.10	1587.18
454.30	1644.52
454.51	1585.13
454.72	1564.65
454.92	1591.27
455.13	1558.50
455.33	1665.00
455.54	1632.23
455.74	1628.14
455.95	1593.32
456.16	1568.74
456.36	1611.75
456.57	1621.99
456.77	1644.52
456.98	1619.94
457.18	1615.85
457.39	1626.09
457.60	1581.03
457.80	1697.77
458.01	1597.42
458.21	1605.61
458.42	1652.71
458.62	1673.19
458.83	1624.04
459.03	1628.14
459.24	1617.90
459.45	1578.98
459.65	1480.68
459.86	1648.61
460.06	1554.41
460.27	1619.94
460.47	1540.07
460.68	1665.00
460.88	1720.29
461.09	1628.14
461.30	1542.12
461.50	1650.66
461.71	1671.14
461.91	1654.76
462.12	1574.89
462.32	1562.60
462.53	1552.36
462.73	1662.95
462.94	1572.84
463.14	1603.56
463.35	1687.53
463.55	1621.99
463.76	1613.80
463.96	1662.95
464.17	1576.94
464.38	1628.14
464.58	1703.91
464.79	1601.51
464.99	1576.94
465.20	1642.47
465.40	1597.42
465.61	1591.27
465.81	1603.56
466.02	1593.32
466.22	1662.95
466.43	1517.54
466.63	1644.52
466.84	1615.85
467.04	1587.18
467.25	1621.99
467.45	1581.03
467.66	1599.46
467.86	1589.22
468.07	1619.94
468.27	1609.70
468.48	1603.56
468.68	1675.24
468.89	1638.38
469.09	1533.93
469.30	1632.23
469.51	1650.66
469.71	1630.18
469.92	1558.50
470.12	1632.23
470.33	1628.14
470.53	1513.45
470.74	1619.94
470.94	1677.29
471.15	1669.09
471.35	2054.11
471.56	1628.14
471.76	1624.04
471.97	1538.02
472.17	1566.70
472.38	1679.33
472.58	1689.57
472.78	1591.27
472.99	1628.14
473.19	1634.28
473.40	1558.50
473.60	1578.98
473.81	1558.50
474.01	1630.18
474.22	1632.23
474.42	1687.53
474.63	1605.61
474.83	1587.18
475.04	1556.46
475.24	1591.27
475.45	1669.09
475.65	1591.27
475.86	1589.22
476.06	1578.98
476.27	1538.02
476.47	1589.22
476.68	1617.90
476.88	1634.28
477.09	1613.80
477.29	1562.60
477.50	1560.55
477.70	1691.62
477.90	1566.70
478.11	1570.79
478.31	1589.22
478.52	1650.66
478.72	1609.70
478.93	1574.89
479.13	1621.99
479.34	1626.09
479.54	1626.09
479.75	1630.18
479.95	1589.22
480.16	1646.57
480.36	1611.75
480.56	1636.33
480.77	1644.52
480.97	1751.01
481.18	1519.59
481.38	1617.90
481.59	1654.76
481.79	1697.77
482.00	1652.71
482.20	1693.67
482.41	1804.26
482.61	1654.76
482.81	1677.29
483.02	1679.33
483.22	1603.56
483.43	1615.85
483.63	1628.14
483.84	1585.13
484.04	1634.28
484.24	1595.37
484.45	1701.86
484.65	1634.28
484.86	1558.50
485.06	1648.61
485.27	1607.66
485.47	1599.46
485.68	1589.22
485.88	1554.41
486.08	1574.89
486.29	1587.18
486.49	1642.47
486.70	1611.75
486.90	1642.47
487.11	1617.90
487.31	1599.46
487.51	1607.66
487.72	1548.26
487.92	1677.29
488.13	1673.19
488.33	1603.56
488.53	1619.94
488.74	1714.15
488.94	1640.42
489.15	1617.90
489.35	1576.94
489.56	1660.90
489.76	1665.00
489.96	1636.33
490.17	1595.37
490.37	1683.43
490.58	1634.28
490.78	1662.95
490.98	1640.42
491.19	1576.94
491.39	1589.22
491.60	1638.38
491.80	1640.42
492.00	1591.27
492.21	1613.80
492.41	1677.29
492.62	1644.52
492.82	1556.46
493.02	1689.57
493.23	1701.86
493.43	1601.51
493.64	1568.74
493.84	1632.23
494.04	1624.04
494.25	1621.99
494.45	1630.18
494.66	1638.38
494.86	1628.14
495.06	1603.56
495.27	1652.71
495.47	1644.52
495.67	1726.44
495.88	1607.66
496.08	1693.67
496.29	1675.24
496.49	1542.12
496.69	1654.76
496.90	1587.18
497.10	1644.52
497.30	1648.61
497.51	1640.42
497.71	1665.00
497.92	1644.52
498.12	1591.27
498.32	1591.27
498.53	1654.76
498.73	1722.34
498.93	1732.58
499.14	1581.03
499.34	1652.71
499.55	1638.38
499.75	1593.32
499.95	1562.60
500.16	1710.05
500.36	1578.98
500.56	1613.80
500.77	1591.27
500.97	1654.76
501.17	1589.22
501.38	1644.52
501.58	1628.14
501.79	1650.66
501.99	1681.38
502.19	1603.56
502.40	1589.22
502.60	1644.52
502.80	1656.81
503.01	1662.95
503.21	1630.18
503.41	1621.99
503.62	1710.05
503.82	1535.98
504.02	1599.46
504.23	1624.04
504.43	1687.53
504.63	1621.99
504.84	1632.23
505.04	1669.09
505.24	1660.90
505.45	1650.66
505.65	1601.51
505.85	1677.29
506.06	1669.09
506.26	1611.75
506.46	1609.70
506.67	1640.42
506.87	1638.38
507.07	1708.01
507.28	1617.90
507.48	1640.42
507.68	1607.66
507.89	1628.14
508.09	1681.38
508.29	1570.79
508.50	1679.33
508.70	1648.61
508.90	1646.57
509.11	1763.30
509.31	1687.53
509.51	1597.42
509.72	1669.09
509.92	1607.66
510.12	1603.56
510.32	1689.57
510.53	1673.19
510.73	1685.48
510.93	1607.66
511.14	1624.04
511.34	1634.28
511.54	1660.90
511.75	1660.90
511.95	1654.76
512.15	1558.50
512.36	1701.86
512.56	1626.09
512.76	1597.42
512.96	1624.04
513.17	1693.67
513.37	1648.61
513.57	1638.38
513.78	1656.81
513.98	1681.38
514.18	1630.18
514.38	1605.61
514.59	1648.61
514.79	1687.53
514.99	1591.27
515.20	1593.32
515.40	1599.46
515.60	1724.39
515.80	1640.42
516.01	1691.62
516.21	1652.71
516.41	1669.09
516.62	1591.27
516.82	1583.08
517.02	1667.05
517.22	1773.54
517.43	1648.61
517.63	1689.57
517.83	1560.55
518.04	1638.38
518.24	1607.66
518.44	1609.70
518.64	1732.58
518.85	1732.58
519.05	1640.42
519.25	1601.51
519.45	1734.63
519.66	1652.71
519.86	1605.61
520.06	1681.38
520.26	1597.42
520.47	1662.95
520.67	1642.47
520.87	1720.29
521.08	1658.85
521.28	1535.98
521.48	1677.29
521.68	1615.85
521.89	1638.38
522.09	1703.91
522.29	1648.61
522.49	1669.09
522.70	1755.11
522.90	1818.60
523.10	1613.80
523.30	1681.38
523.51	1671.14
523.71	1617.90
523.91	1642.47
524.11	1644.52
524.31	1640.42
524.52	1722.34
524.72	1628.14
524.92	1679.33
525.12	1662.95
525.33	1632.23
525.53	1671.14
525.73	1660.90
525.93	1570.79
526.14	1628.14
526.34	1650.66
526.54	1636.33
526.74	1644.52
526.95	1744.87
527.15	1587.18
527.35	1630.18
527.55	1644.52
527.75	1578.98
527.96	1644.52
528.16	1671.14
528.36	1617.90
528.56	1617.90
528.77	1708.01
528.97	1665.00
529.17	1695.72
529.37	1572.84
529.57	1660.90
529.78	1775.59
529.98	1646.57
530.18	1644.52
530.38	1638.38
530.58	1595.37
530.79	1714.15
530.99	1644.52
531.19	1716.20
531.39	1689.57
531.59	1761.25
531.80	1675.24
532.00	1671.14
532.20	1718.25
532.40	1554.41
532.60	1662.95
532.81	1693.67
533.01	1734.63
533.21	1595.37
533.41	1630.18
533.61	1634.28
533.82	1783.78
534.02	1638.38
534.22	1652.71
534.42	1759.21
534.62	1736.68
534.83	1652.71
535.03	1736.68
535.23	1581.03
535.43	1681.38
535.63	1589.22
535.83	1640.42
536.04	1626.09
536.24	1748.97
536.44	1638.38
536.64	1718.25
536.84	1705.96
537.05	1689.57
537.25	1697.77
537.45	1669.09
537.65	1734.63
537.85	1626.09
538.05	1634.28
538.26	1728.49
538.46	1691.62
538.66	1763.30
538.86	1578.98
539.06	1636.33
539.26	1632.23
539.47	1675.24
539.67	1665.00
539.87	1662.95
540.07	1701.86
540.27	1759.21
540.47	1751.01
540.68	1710.05
540.88	1742.82
541.08	1751.01
541.28	1613.80
541.48	1667.05
541.68	1662.95
541.88	1742.82
542.09	1677.29
542.29	1744.87
542.49	1687.53
542.69	1783.78
542.89	1691.62
543.09	1728.49
543.29	1726.44
543.50	1697.77
543.70	1687.53
543.90	1667.05
544.10	1693.67
544.30	1726.44
544.50	1693.67
544.70	1734.63
544.91	1773.54
545.11	1718.25
545.31	1765.35
545.51	1779.68
545.71	1761.25
545.91	1796.07
546.11	1810.40
546.31	1703.91
546.52	1787.88
546.72	1755.11
546.92	1687.53
547.12	1687.53
547.32	1730.53
547.52	1679.33
547.72	1751.01
547.92	1732.58
548.13	1665.00
548.33	1662.95
548.53	1783.78
548.73	1665.00
548.93	1820.64
549.13	1689.57
549.33	1673.19
549.53	1619.94
549.73	1720.29
549.94	1679.33
550.14	1744.87
550.34	1665.00
550.54	1730.53
550.74	1726.44
550.94	1781.73
551.14	1687.53
551.34	1677.29
551.54	1714.15
551.74	1603.56
551.95	1665.00
552.15	1628.14
552.35	1759.21
552.55	1624.04
552.75	1718.25
552.95	1753.06
553.15	1705.96
553.35	1669.09
553.55	1732.58
553.75	1687.53
553.95	1609.70
554.16	1691.62
554.36	1681.38
554.56	1652.71
554.76	1581.03
554.96	1665.00
555.16	1675.24
555.36	1718.25
555.56	1806.31
555.76	1710.05
555.96	1605.61
556.16	1675.24
556.36	1632.23
556.57	1699.81
556.77	1699.81
556.97	1722.34
557.17	1705.96
557.37	1697.77
557.57	1636.33
557.77	1699.81
557.97	1628.14
558.17	1710.05
558.37	1689.57
558.57	1705.96
558.77	1609.70
558.97	1738.73
559.17	1710.05
559.37	1685.48
559.57	1644.52
559.78	1669.09
559.98	1587.18
560.18	1687.53
560.38	1791.97
560.58	1734.63
560.78	1615.85
560.98	1671.14
561.18	1777.64
561.38	1701.86
561.58	1753.06
561.78	1738.73
561.98	1703.91
562.18	1683.43
562.38	1720.29
562.58	1681.38
562.78	1736.68
562.98	1685.48
563.18	1736.68
563.38	1687.53
563.58	1732.58
563.78	1660.90
563.98	1660.90
564.18	1646.57
564.38	1683.43
564.58	1669.09
564.79	1783.78
564.99	1728.49
565.19	1714.15
565.39	1759.21
565.59	1722.34
565.79	1615.85
565.99	1759.21
566.19	1652.71
566.39	1693.67
566.59	1716.20
566.79	1597.42
566.99	1705.96
567.19	1662.95
567.39	1611.75
567.59	1771.49
567.79	1701.86
567.99	1695.72
568.19	1658.85
568.39	1660.90
568.59	1669.09
568.79	1724.39
568.99	1701.86
569.19	1714.15
569.39	1791.97
569.59	1665.00
569.79	1652.71
569.99	1722.34
570.19	1708.01
570.39	1718.25
570.59	1753.06
570.79	1767.40
570.99	1683.43
571.19	1685.48
571.39	1703.91
571.59	1705.96
571.79	1734.63
571.99	1779.68
572.19	1644.52
572.39	1851.36
572.59	1677.29
572.79	1652.71
572.99	1660.90
573.19	1689.57
573.39	1638.38
573.59	1753.06
573.79	1685.48
573.99	1687.53
574.19	1712.10
574.38	1652.71
574.58	1759.21
574.78	1742.82
574.98	1777.64
575.18	1748.97
575.38	1642.47
575.58	1777.64
575.78	1777.64
575.98	1662.95
576.18	1689.57
576.38	1703.91
576.58	1718.25
576.78	1718.25
576.98	1773.54
577.18	1777.64
577.38	1640.42
577.58	1732.58
577.78	1654.76
577.98	1726.44
578.18	1710.05
578.38	1667.05
578.58	1730.53
578.78	1728.49
578.98	1791.97
579.18	1677.29
579.37	1738.73
579.57	1712.10
579.77	1742.82
579.97	1687.53
580.17	1693.67
580.37	1673.19
580.57	1730.53
580.77	1687.53
580.97	2045.92
581.17	1751.01
581.37	1650.66
581.57	1714.15
581.77	1652.71
581.97	1804.26
582.17	1718.25
582.37	1701.86
582.56	1763.30
582.76	1705.96
582.96	1742.82
583.16	1697.77
583.36	1714.15
583.56	1718.25
583.76	1710.05
583.96	1652.71
584.16	1693.67
584.36	1816.55
584.56	1681.38
584.76	1796.07
584.95	1794.02
585.15	1648.61
585.35	1742.82
585.55	1624.04
585.75	1728.49
585.95	1755.11
586.15	1726.44
586.35	1656.81
586.55	1738.73
586.75	1791.97
586.95	1685.48
587.14	1679.33
587.34	1718.25
587.54	1658.85
587.74	1775.59
587.94	1630.18
588.14	1755.11
588.34	1785.83
588.54	1816.55
588.74	1736.68
588.94	1775.59
589.13	1695.72
589.33	1759.21
589.53	1638.38
589.73	1685.48
589.93	1728.49
590.13	1730.53
590.33	1693.67
590.53	1732.58
590.72	1693.67
590.92	1685.48
591.12	1710.05
591.32	1736.68
591.52	1753.06
591.72	1695.72
591.92	1746.92
592.12	1695.72
592.32	1757.16
592.51	1679.33
592.71	1716.20
592.91	1720.29
593.11	1695.72
593.31	1644.52
593.51	1714.15
593.71	1705.96
593.90	1714.15
594.10	1775.59
594.30	1693.67
594.50	1740.77
594.70	1681.38
594.90	1685.48
595.10	1736.68
595.29	1710.05
595.49	1763.30
595.69	1685.48
595.89	1722.34
596.09	1759.21
596.29	1783.78
596.49	1746.92
596.68	1701.86
596.88	1701.86
597.08	1773.54
597.28	1660.90
597.48	1802.21
597.68	1685.48
597.87	1773.54
598.07	1685.48
598.27	1712.10
598.47	1751.01
598.67	1685.48
598.87	1730.53
599.06	1767.40
599.26	1687.53
599.46	1783.78
599.66	1703.91
599.86	1708.01
600.06	1652.71
600.25	1744.87
600.45	1814.50
600.65	1761.25
600.85	1697.77
601.05	1748.97
601.25	1726.44
601.44	1763.30
601.64	1683.43
601.84	1777.64
602.04	1738.73
602.24	1691.62
602.43	1669.09
602.63	1718.25
602.83	1654.76
603.03	1724.39
603.23	1718.25
603.42	1837.03
603.62	1681.38
603.82	1851.36
604.02	1742.82
604.22	1744.87
604.42	1671.14
604.61	1816.55
604.81	1800.16
605.01	1740.77
605.21	2105.31
605.40	1691.62
605.60	1761.25
605.80	1744.87
606.00	1753.06
606.20	1695.72
606.39	1777.64
606.59	1759.21
606.79	1742.82
606.99	1683.43
607.19	1693.67
607.38	1748.97
607.58	1669.09
607.78	1714.15
607.98	1751.01
608.18	1699.81
608.37	1728.49
608.57	1681.38
608.77	1806.31
608.97	1746.92
609.16	1669.09
609.36	1816.55
609.56	1777.64
609.76	1791.97
609.95	1679.33
610.15	1923.04
610.35	1812.45
610.55	1826.79
610.75	1767.40
610.94	1734.63
611.14	1656.81
611.34	1837.03
611.54	1873.89
611.73	1787.88
611.93	1751.01
612.13	1800.16
612.33	1742.82
612.52	1781.73
612.72	1720.29
612.92	1775.59
613.12	1794.02
613.31	1757.16
613.51	1728.49
613.71	1761.25
613.91	1794.02
614.10	1830.88
614.30	1787.88
614.50	1781.73
614.70	1755.11
614.89	1806.31
615.09	1710.05
615.29	1714.15
615.49	1800.16
615.68	1779.68
615.88	1871.84
616.08	1816.55
616.27	1720.29
616.47	1685.48
616.67	1716.20
616.87	1751.01
617.06	1730.53
617.26	1683.43
617.46	1742.82
617.66	1763.30
617.85	1830.88
618.05	1763.30
618.25	1753.06
618.44	1816.55
618.64	1705.96
618.84	1718.25
619.04	1726.44
619.23	1724.39
619.43	1665.00
619.63	1826.79
619.82	1742.82
620.02	1765.35
620.22	1785.83
620.42	1736.68
620.61	1761.25
620.81	1849.32
621.01	1742.82
621.20	1763.30
621.40	1783.78
621.60	1787.88
621.79	1746.92
621.99	1761.25
622.19	1791.97
622.39	1884.13
622.58	1865.70
622.78	1755.11
622.98	1914.85
623.17	1689.57
623.37	2228.19
623.57	1755.11
623.76	1736.68
623.96	1814.50
624.16	1814.50
624.35	1802.21
624.55	1787.88
624.75	1869.80
624.94	1746.92
625.14	1740.77
625.34	1771.49
625.53	1777.64
625.73	1755.11
625.93	1851.36
626.12	1744.87
626.32	1705.96
626.52	1812.45
626.71	1681.38
626.91	1791.97
627.11	1640.42
627.30	1759.21
627.50	1697.77
627.70	1796.07
627.89	1769.44
628.09	1779.68
628.29	1730.53
628.48	1765.35
628.68	1816.55
628.88	1712.10
629.07	1771.49
629.27	1753.06
629.47	1656.81
629.66	1726.44
629.86	1714.15
630.06	1755.11
630.25	1763.30
630.45	1820.64
630.65	1771.49
630.84	1783.78
631.04	1828.84
631.24	1728.49
631.43	1751.01
631.63	1837.03
631.82	1767.40
632.02	1689.57
632.22	1847.27
632.41	1689.57
632.61	1814.50
632.81	1892.32
633.00	1742.82
633.20	1759.21
633.39	1820.64
633.59	1712.10
633.79	1777.64
633.98	1681.38
634.18	1718.25
634.38	1744.87
634.57	1734.63
634.77	1808.36
634.96	1691.62
635.16	1775.59
635.36	1824.74
635.55	1834.98
635.75	1789.92
635.95	1798.12
636.14	1873.89
636.34	1775.59
636.53	1746.92
636.73	1773.54
636.93	1796.07
637.12	1785.83
637.32	1789.92
637.51	1826.79
637.71	1789.92
637.91	1714.15
638.10	1679.33
638.30	1775.59
638.49	1779.68
638.69	1789.92
638.89	1744.87
639.08	1845.22
639.28	1771.49
639.47	1724.39
639.67	1730.53
639.86	1806.31
640.06	1767.40
640.26	1884.13
640.45	1775.59
640.65	1808.36
640.84	1759.21
641.04	1693.67
641.24	1777.64
641.43	1720.29
641.63	1710.05
641.82	1794.02
642.02	1714.15
642.21	1806.31
642.41	1787.88
642.61	1685.48
642.80	1802.21
643.00	1798.12
643.19	1818.60
643.39	1748.97
643.58	1796.07
643.78	1785.83
643.97	1675.24
644.17	1906.66
644.37	1718.25
644.56	1738.73
644.76	1759.21
644.95	1744.87
645.15	1824.74
645.34	1669.09
645.54	1779.68
645.73	1869.80
645.93	1867.75
646.13	1759.21
646.32	1742.82
646.52	1763.30
646.71	1845.22
646.91	1734.63
647.10	1812.45
647.30	1736.68
647.49	1751.01
647.69	1740.77
647.88	1849.32
648.08	1718.25
648.28	1783.78
648.47	1818.60
648.67	1759.21
648.86	1783.78
649.06	1933.28
649.25	1753.06
649.45	1798.12
649.64	1763.30
649.84	1789.92
650.03	1759.21
650.23	1744.87
650.42	1693.67
650.62	1804.26
650.81	1871.84
651.01	1763.30
651.20	1837.03
651.40	1720.29
651.59	1796.07
651.79	1798.12
651.98	1753.06
652.18	1746.92
652.37	1767.40
652.57	1806.31
652.76	1859.56
652.96	1785.83
653.15	1771.49
653.35	1736.68
653.54	1746.92
653.74	1738.73
653.93	1759.21
654.13	1826.79
654.32	1675.24
654.52	1740.77
654.71	1841.12
654.91	1816.55
655.10	1771.49
655.30	1818.60
655.49	1818.60
655.69	1775.59
655.88	1775.59
656.08	1804.26
656.27	1820.64
656.47	1759.21
656.66	1800.16
656.86	1857.51
657.05	1875.94
657.25	1769.44
657.44	1779.68
657.64	1718.25
657.83	1814.50
658.03	1771.49
658.22	1908.71
658.42	1867.75
658.61	1675.24
658.80	1753.06
659.00	1705.96
659.19	1734.63
659.39	1720.29
659.58	1789.92
659.78	1794.02
659.97	1798.12
660.17	1804.26
660.36	1773.54
660.56	1714.15
660.75	1742.82
660.95	1763.30
661.14	1730.53
661.33	1675.24
661.53	1832.93
661.72	1722.34
661.92	1808.36
662.11	1802.21
662.31	1781.73
662.50	1832.93
662.70	1791.97
662.89	1732.58
663.08	1787.88
663.28	1759.21
663.47	1775.59
663.67	1775.59
663.86	1828.84
664.06	1718.25
664.25	1726.44
664.44	1804.26
664.64	1753.06
664.83	1763.30
665.03	1755.11
665.22	1830.88
665.42	1730.53
665.61	1773.54
665.80	1699.81
666.00	1808.36
666.19	1804.26
666.39	1777.64
666.58	1775.59
666.77	1777.64
666.97	1791.97
667.16	1804.26
667.36	1753.06
667.55	1791.97
667.75	1814.50
667.94	1787.88
668.13	1783.78
668.33	1890.28
668.52	1804.26
668.72	1771.49
668.91	1742.82
669.10	1794.02
669.30	1769.44
669.49	1871.84
669.69	1759.21
669.88	1882.08
670.07	1757.16
670.27	1867.75
670.46	1734.63
670.66	1820.64
670.85	1826.79
671.04	1849.32
671.24	1796.07
671.43	1718.25
671.62	1816.55
671.82	1857.51
672.01	1744.87
672.21	1734.63
672.40	1865.70
672.59	1767.40
672.79	1742.82
672.98	1794.02
673.17	1886.18
673.37	1734.63
673.56	1849.32
673.76	1744.87
673.95	1849.32
674.14	1814.50
674.34	1787.88
674.53	1787.88
674.72	1849.32
674.92	1730.53
675.11	1812.45
675.30	1812.45
675.50	1777.64
675.69	1794.02
675.89	1763.30
676.08	1826.79
676.27	1888.23
676.47	1712.10
676.66	1826.79
676.85	1837.03
677.05	1759.21
677.24	1845.22
677.43	1765.35
677.63	1837.03
677.82	1845.22
678.01	1796.07
678.21	1763.30
678.40	1847.27
678.59	1722.34
678.79	1746.92
678.98	1775.59
679.17	1794.02
679.37	1834.98
679.56	1748.97
679.75	1847.27
679.95	1863.65
680.14	1875.94
680.33	1771.49
680.53	1802.21
680.72	1753.06
680.91	1845.22
681.11	1882.08
681.30	1755.11
681.49	1775.59
681.69	1814.50
681.88	1857.51
682.07	1699.81
682.26	1791.97
682.46	1808.36
682.65	1857.51
682.84	1812.45
683.04	1755.11
683.23	1810.40
683.42	1703.91
683.62	1812.45
683.81	1669.09
684.00	1875.94
684.20	1794.02
684.39	1818.60
684.58	1742.82
684.77	1791.97
684.97	1730.53
685.16	1708.01
685.35	1759.21
685.55	1771.49
685.74	1781.73
685.93	1843.17
686.12	1761.25
686.32	1832.93
686.51	1890.28
686.70	1847.27
686.90	1740.77
687.09	1738.73
687.28	1832.93
687.47	1830.88
687.67	1720.29
687.86	1839.08
688.05	1820.64
688.25	1755.11
688.44	1822.69
688.63	1783.78
688.82	1738.73
689.02	1826.79
689.21	1775.59
689.40	1703.91
689.59	1650.66
689.79	1755.11
689.98	1781.73
690.17	1763.30
690.36	1857.51
690.56	1806.31
690.75	1859.56
690.94	1869.80
691.13	1810.40
691.33	1812.45
691.52	1660.90
691.71	1767.40
691.90	1783.78
692.10	1777.64
692.29	1806.31
692.48	1869.80
692.67	1734.63
692.87	1812.45
693.06	1689.57
693.25	1810.40
693.44	1691.62
693.64	1779.68
693.83	1849.32
694.02	1697.77
694.21	1722.34
694.40	1873.89
694.60	1712.10
694.79	1759.21
694.98	1802.21
695.17	1740.77
695.37	1761.25
695.56	1785.83
695.75	1693.67
695.94	1777.64
696.13	1832.93
696.33	1765.35
696.52	1818.60
696.71	1877.99
696.90	1712.10
697.10	1820.64
697.29	1716.20
697.48	1791.97
697.67	1761.25
697.86	1810.40
698.06	1722.34
698.25	1804.26
698.44	1767.40
698.63	1863.65
698.82	1775.59
699.02	1800.16
699.21	1771.49
699.40	1832.93
699.59	1800.16
699.78	1738.73
699.98	1841.12
700.17	1755.11
700.36	1800.16
700.55	1816.55
700.74	1867.75
700.93	1730.53
701.13	1748.97
701.32	1834.98
701.51	1841.12
701.70	1767.40
701.89	1804.26
702.09	1794.02
702.28	1771.49
702.47	1763.30
702.66	1724.39
702.85	1802.21
703.04	1726.44
703.24	1732.58
703.43	1832.93
703.62	1783.78
703.81	1800.16
704.00	1824.74
704.19	1818.60
704.39	1783.78
704.58	1785.83
704.77	1830.88
704.96	1794.02
705.15	1824.74
705.34	1755.11
705.54	1781.73
705.73	1794.02
705.92	1753.06
706.11	1816.55
706.30	1845.22
706.49	1800.16
706.68	1759.21
706.88	1710.05
707.07	1785.83
707.26	1826.79
707.45	1759.21
707.64	1765.35
707.83	1724.39
708.02	1753.06
708.22	1789.92
708.41	1785.83
708.60	1806.31
708.79	1761.25
708.98	1802.21
709.17	1869.80
709.36	1730.53
709.55	1781.73
709.75	1812.45
709.94	1712.10
710.13	1712.10
710.32	1771.49
710.51	1796.07
710.70	1746.92
710.89	1810.40
711.08	1783.78
711.27	1796.07
711.47	1800.16
711.66	1708.01
711.85	1796.07
712.04	1759.21
712.23	1742.82
712.42	1710.05
712.61	1679.33
712.80	1724.39
712.99	1736.68
713.19	1748.97
713.38	1781.73
713.57	1837.03
713.76	1742.82
713.95	1726.44
714.14	1753.06
714.33	1798.12
714.52	1814.50
714.71	1771.49
714.90	1841.12
715.09	1767.40
715.28	1718.25
715.48	1822.69
715.67	1806.31
715.86	1845.22
716.05	1751.01
716.24	1763.30
716.43	1732.58
716.62	1849.32
716.81	1796.07
717.00	1902.56
717.19	1802.21
717.38	1734.63
717.57	1748.97
717.76	1791.97
717.96	1734.63
718.15	1839.08
718.34	1814.50
718.53	1744.87
718.72	1783.78
718.91	1843.17
719.10	1751.01
719.29	1798.12
719.48	1773.54
719.67	1853.41
719.86	1886.18
720.05	1826.79
720.24	1710.05
720.43	1775.59
720.62	1728.49
720.81	1808.36
721.00	1818.60
721.19	1802.21
721.38	1800.16
721.57	1753.06
721.77	1849.32
721.96	1699.81
722.15	1767.40
722.34	1755.11
722.53	1884.13
722.72	1791.97
722.91	1781.73
723.10	1771.49
723.29	1785.83
723.48	1814.50
723.67	1828.84
723.86	1841.12
724.05	1732.58
724.24	1794.02
724.43	1824.74
724.62	1759.21
724.81	1742.82
725.00	1734.63
725.19	1810.40
725.38	1728.49
725.57	1767.40
725.76	1740.77
725.95	1771.49
726.14	1800.16
726.33	1875.94
726.52	1787.88
726.71	1806.31
726.90	1761.25
727.09	1826.79
727.28	1734.63
727.47	1783.78
727.66	1783.78
727.85	1701.86
728.04	1791.97
728.23	1779.68
728.42	1841.12
728.61	1787.88
728.80	1808.36
728.99	1714.15
729.18	1761.25
729.37	1726.44
729.56	1779.68
729.75	1699.81
729.94	1771.49
730.13	1828.84
730.32	1800.16
730.51	1763.30
730.70	1861.60
730.89	1763.30
731.08	1916.90
731.27	1837.03
731.46	1779.68
731.65	1804.26
731.84	1796.07
732.03	1697.77
732.21	1701.86
732.40	1818.60
732.59	1779.68
732.78	1730.53
732.97	1873.89
733.16	1746.92
733.35	1810.40
733.54	1757.16
733.73	1818.60
733.92	1810.40
734.11	1783.78
734.30	1751.01
734.49	1736.68
734.68	1857.51
734.87	1791.97
735.06	1779.68
735.25	1742.82
735.44	1824.74
735.63	1771.49
735.81	1892.32
736.00	1824.74
736.19	1861.60
736.38	1800.16
736.57	1857.51
736.76	1794.02
736.95	1775.59
737.14	1808.36
737.33	1722.34
737.52	1830.88
737.71	1718.25
737.90	1726.44
738.09	1816.55
738.28	1808.36
738.46	1730.53
738.65	1800.16
738.84	1802.21
739.03	1824.74
739.22	1710.05
739.41	1947.62
739.60	1771.49
739.79	1746.92
739.98	1685.48
740.17	1736.68
740.36	1773.54
740.54	1798.12
740.73	1826.79
740.92	1730.53
741.11	1765.35
741.30	1746.92
741.49	1771.49
741.68	1763.30
741.87	1791.97
742.06	1812.45
742.24	1832.93
742.43	1730.53
742.62	1796.07
742.81	1877.99
743.00	1824.74
743.19	1685.48
743.38	1777.64
743.57	1763.30
743.76	1679.33
743.94	1839.08
744.13	1744.87
744.32	1722.34
744.51	1693.67
744.70	1865.70
744.89	1718.25
745.08	1734.63
745.26	1712.10
745.45	1796.07
745.64	1775.59
745.83	1802.21
746.02	1794.02
746.21	1753.06
746.40	1759.21
746.58	1708.01
746.77	1771.49
746.96	1720.29
747.15	1681.38
747.34	1871.84
747.53	1783.78
747.72	1759.21
747.90	1785.83
748.09	1746.92
748.28	1847.27
748.47	1767.40
748.66	1658.85
748.85	1796.07
749.03	1789.92
749.22	1714.15
749.41	1751.01
749.60	1757.16
749.79	1822.69
749.98	1744.87
750.16	1849.32
750.35	1779.68
750.54	1781.73
750.73	1765.35
750.92	1769.44
751.11	1779.68
751.29	1742.82
751.48	1849.32
751.67	1746.92
751.86	1775.59
752.05	1800.16
752.24	1699.81
752.42	1746.92
752.61	1841.12
752.80	1744.87
752.99	1761.25
753.18	1705.96
753.36	1828.84
753.55	1783.78
753.74	1755.11
753.93	1830.88
754.12	1759.21
754.30	1722.34
754.49	1839.08
754.68	1810.40
754.87	1910.75
755.06	1716.20
755.24	1701.86
755.43	1779.68
755.62	1837.03
755.81	1816.55
755.99	1765.35
756.18	1873.89
756.37	1703.91
756.56	1763.30
756.75	1763.30
756.93	1765.35
757.12	1722.34
757.31	1720.29
757.50	1724.39
757.68	1746.92
757.87	1712.10
758.06	1777.64
758.25	1798.12
758.44	1810.40
758.62	1769.44
758.81	1742.82
759.00	1773.54
759.19	1726.44
759.37	1736.68
759.56	1794.02
759.75	1808.36
759.94	1812.45
760.12	1761.25
760.31	1783.78
760.50	1726.44
760.69	1742.82
760.87	1744.87
761.06	1812.45
761.25	1816.55
761.44	1742.82
761.62	1777.64
761.81	1751.01
762.00	1783.78
762.19	1916.90
762.37	1753.06
762.56	1744.87
762.75	1769.44
762.94	1710.05
763.12	1761.25
763.31	1863.65
763.50	1738.73
763.68	1816.55
763.87	1662.95
764.06	1761.25
764.25	1773.54
764.43	1796.07
764.62	1703.91
764.81	1755.11
764.99	1812.45
765.18	1751.01
765.37	1800.16
765.56	1710.05
765.74	1767.40
765.93	1755.11
766.12	1673.19
766.30	1720.29
766.49	1757.16
766.68	1738.73
766.87	1742.82
767.05	1783.78
767.24	1781.73
767.43	1771.49
767.61	1771.49
767.80	1767.40
767.99	1701.86
768.17	1783.78
768.36	1738.73
768.55	1734.63
768.73	1775.59
768.92	1828.84
769.11	1769.44
769.30	1759.21
769.48	1769.44
769.67	1738.73
769.86	1886.18
770.04	1800.16
770.23	1720.29
770.42	1644.52
770.60	1718.25
770.79	1834.98
770.98	1652.71
771.16	1687.53
771.35	1751.01
771.54	1695.72
771.72	1800.16
771.91	1755.11
772.10	1767.40
772.28	1734.63
772.47	1710.05
772.66	1732.58
772.84	1656.81
773.03	1804.26
773.22	1789.92
773.40	1726.44
773.59	1751.01
773.77	1648.61
773.96	1761.25
774.15	1751.01
774.33	1695.72
774.52	1726.44
774.71	1728.49
774.89	1722.34
775.08	1753.06
775.27	1718.25
775.45	1800.16
775.64	1695.72
775.83	1742.82
776.01	1722.34
776.20	1718.25
776.38	1763.30
776.57	1689.57
776.76	1742.82
776.94	1791.97
777.13	1847.27
777.32	1710.05
777.50	1662.95
777.69	1636.33
777.87	1777.64
778.06	1751.01
778.25	1669.09
778.43	1734.63
778.62	1800.16
778.80	1802.21
778.99	1843.17
779.18	1808.36
779.36	1693.67
779.55	1712.10
779.73	1767.40
779.92	1697.77
780.11	1726.44
780.29	1697.77
780.48	1734.63
780.66	1662.95
780.85	1722.34
781.04	1724.39
781.22	1736.68
781.41	1722.34
781.59	1753.06
781.78	1660.90
781.97	1820.64
782.15	1761.25
782.34	1648.61
782.52	1769.44
782.71	1722.34
782.89	1708.01
783.08	1687.53
783.27	1703.91
783.45	1710.05
783.64	1777.64
783.82	1800.16
784.01	1687.53
784.19	1712.10
784.38	1802.21
784.57	1744.87
784.75	1712.10
784.94	1757.16
785.12	1806.31
785.31	1665.00
785.49	1687.53
785.68	1701.86
785.86	1773.54
786.05	1712.10
786.24	1730.53
786.42	1724.39
786.61	1732.58
786.79	1767.40
786.98	1697.77
787.16	1730.53
787.35	1763.30
787.53	1800.16
787.72	1710.05
787.90	1730.53
788.09	1652.71
788.28	1767.40
788.46	1726.44
788.65	1705.96
788.83	1689.57
789.02	1720.29
789.20	1775.59
789.39	1744.87
789.57	1734.63
789.76	1812.45
789.94	1804.26
790.13	1771.49
790.31	1701.86
790.50	1751.01
790.68	1857.51
790.87	1791.97
791.05	1705.96
791.24	1732.58
791.42	1751.01
791.61	1740.77
791.79	1656.81
791.98	1710.05
792.16	1728.49
792.35	1761.25
792.53	1828.84
792.72	1730.53
792.90	1679.33
793.09	1753.06
793.27	1742.82
793.46	1689.57
793.64	1761.25
793.83	1761.25
794.01	1775.59
794.20	1775.59
794.38	1761.25
794.57	1767.40
794.75	1695.72
794.94	1769.44
795.12	1705.96
795.31	1685.48
795.49	1742.82
795.68	1783.78
795.86	1804.26
796.05	1738.73
796.23	1687.53
796.42	1839.08
796.60	1714.15
796.78	1734.63
796.97	1802.21
797.15	1679.33
797.34	1748.97
797.52	1755.11
797.71	1787.88
797.89	1714.15
798.08	1787.88
798.26	1703.91
798.45	1667.05
798.63	1720.29
798.81	1665.00
799.00	1769.44
799.18	1726.44
799.37	1691.62
799.55	1757.16
799.74	1701.86
799.92	1689.57
800.11	1759.21
800.29	1753.06
800.47	1730.53
800.66	1746.92
800.84	1714.15
801.03	1671.14
801.21	1738.73
801.40	1755.11
801.58	1806.31
801.76	1796.07
801.95	1714.15
802.13	1726.44
802.32	1689.57
802.50	1744.87
802.69	1775.59
802.87	1705.96
803.05	1720.29
803.24	1734.63
803.42	1695.72
803.61	1718.25
803.79	1746.92
803.97	1789.92
804.16	1695.72
804.34	1656.81
804.53	1757.16
804.71	1691.62
804.89	1728.49
805.08	1738.73
805.26	1783.78
805.45	1755.11
805.63	1736.68
805.81	1638.38
806.00	1767.40
806.18	1716.20
806.37	1677.29
806.55	1718.25
806.73	1710.05
806.92	1832.93
807.10	1705.96
807.28	1693.67
807.47	1728.49
807.65	1796.07
807.84	1734.63
808.02	1794.02
808.20	1642.47
808.39	1759.21
808.57	1738.73
808.75	1726.44
808.94	1685.48
809.12	1619.94
809.31	1714.15
809.49	1697.77
809.67	1761.25
809.86	1667.05
810.04	1816.55
810.22	1718.25
810.41	1638.38
810.59	1669.09
810.77	1677.29
810.96	1767.40
811.14	1744.87
811.32	1693.67
811.51	1767.40
811.69	1578.98
811.87	1779.68
812.06	1708.01
812.24	1628.14
812.42	1636.33
812.61	1761.25
812.79	1712.10
812.97	1734.63
813.16	1783.78
813.34	1697.77
813.52	1763.30
813.71	1646.57
813.89	1763.30
814.07	1654.76
814.26	1710.05
814.44	1822.69
814.62	1726.44
814.81	1759.21
814.99	1693.67
815.17	2039.78
815.36	1775.59
815.54	1699.81
815.72	1699.81
815.91	1708.01
816.09	1669.09
816.27	1699.81
816.45	1687.53
816.64	1794.02
816.82	1728.49
817.00	1841.12
817.19	1681.38
817.37	1699.81
817.55	1693.67
817.74	1751.01
817.92	1648.61
818.10	1728.49
818.28	1751.01
818.47	1722.34
818.65	1730.53
818.83	1685.48
819.02	1746.92
819.20	1701.86
819.38	1775.59
819.56	1701.86
819.75	1767.40
819.93	1785.83
820.11	1697.77
820.29	1736.68
820.48	1718.25
820.66	1718.25
820.84	1730.53
821.03	1751.01
821.21	1777.64
821.39	1783.78
821.57	1681.38
821.76	1687.53
821.94	1708.01
822.12	1701.86
822.30	1699.81
822.49	1738.73
822.67	1708.01
822.85	1687.53
823.03	1701.86
823.22	1570.79
823.40	1687.53
823.58	1708.01
823.76	1769.44
823.95	1679.33
824.13	1658.85
824.31	1726.44
824.49	1677.29
824.68	1746.92
824.86	1740.77
825.04	1816.55
825.22	1779.68
825.40	1742.82
825.59	1685.48
825.77	1808.36
825.95	1761.25
826.13	1705.96
826.32	1695.72
826.50	1734.63
826.68	1703.91
826.86	1658.85
827.04	1718.25
827.23	1740.77
827.41	1693.67
827.59	1695.72
827.77	1677.29
827.95	1732.58
828.14	1761.25
828.32	1669.09
828.50	1748.97
828.68	1736.68
828.86	1605.61
829.05	1697.77
829.23	1732.58
829.41	1636.33
829.59	1787.88
829.77	1681.38
829.96	1658.85
830.14	1712.10
830.32	1710.05
830.50	1665.00
830.68	1751.01
830.87	1695.72
831.05	1742.82
831.23	1822.69
831.41	1677.29
831.59	1675.24
831.77	1693.67
831.96	1642.47
832.14	1732.58
832.32	1632.23
832.50	1701.86
832.68	1759.21
832.86	1681.38
833.05	1699.81
833.23	1726.44
833.41	1726.44
833.59	1763.30
833.77	1761.25
833.95	1755.11
834.14	1720.29
834.32	1726.44
834.50	1804.26
834.68	1714.15
834.86	1644.52
835.04	1640.42
835.22	1720.29
835.41	1712.10
835.59	1718.25
835.77	1656.81
835.95	1656.81
836.13	1685.48
836.31	1609.70
836.49	1632.23
836.67	1718.25
836.86	1691.62
837.04	1644.52
837.22	1714.15
837.40	1699.81
837.58	1726.44
837.76	1736.68
837.94	1710.05
838.12	1687.53
838.31	1665.00
838.49	1804.26
838.67	1677.29
838.85	1775.59
839.03	1654.76
839.21	1779.68
839.39	1681.38
839.57	1681.38
839.75	1705.96
839.94	1640.42
840.12	1849.32
840.30	1718.25
840.48	1654.76
840.66	1673.19
840.84	1734.63
841.02	1708.01
841.20	1738.73
841.38	1705.96
841.56	1773.54
841.74	1673.19
841.93	1744.87
842.11	1722.34
842.29	1738.73
842.47	1658.85
842.65	1755.11
842.83	1716.20
843.01	1695.72
843.19	1734.63
843.37	1671.14
843.55	1630.18
843.73	1761.25
843.91	1751.01
844.09	1730.53
844.28	1662.95
844.46	1759.21
844.64	1650.66
844.82	1677.29
845.00	1695.72
845.18	1703.91
845.36	1701.86
845.54	1632.23
845.72	1736.68
845.90	1718.25
846.08	1705.96
846.26	1687.53
846.44	1656.81
846.62	1705.96
846.80	1769.44
846.98	1644.52
847.16	1603.56
847.34	1687.53
847.52	1718.25
847.70	1724.39
847.88	1648.61
848.07	1734.63
848.25	1638.38
848.43	1753.06
848.61	1712.10
848.79	1681.38
848.97	1658.85
849.15	1689.57
849.33	1628.14
849.51	1761.25
849.69	1763.30
849.87	1691.62
850.05	1695.72
850.23	1628.14
850.41	1726.44
850.59	1798.12
850.77	1705.96
850.95	1714.15
851.13	1736.68
851.31	1718.25
851.49	1742.82
851.67	1636.33
851.85	1669.09
852.03	1771.49
852.21	1703.91
852.39	1691.62
852.57	1757.16
852.75	1714.15
852.93	1751.01
853.11	1701.86
853.29	1710.05
853.47	1759.21
853.65	1714.15
853.83	1638.38
854.01	1685.48
854.19	1777.64
854.37	1660.90
854.55	1697.77
854.73	1730.53
854.91	1705.96
855.08	1691.62
855.26	1669.09
855.44	1660.90
855.62	1804.26
855.80	1605.61
855.98	1794.02
856.16	1685.48
856.34	1751.01
856.52	1693.67
856.70	1697.77
856.88	1746.92
857.06	1738.73
857.24	1720.29
857.42	1607.66
857.60	1751.01
857.78	1628.14
857.96	1654.76
858.14	1640.42
858.32	1667.05
858.50	1767.40
858.68	1654.76
858.85	1712.10
859.03	1753.06
859.21	1679.33
859.39	1683.43
859.57	1681.38
859.75	1716.20
859.93	1675.24
860.11	1775.59
860.29	1669.09
860.47	1665.00
860.65	1675.24
860.83	1763.30
861.01	1753.06
861.18	1640.42
861.36	1667.05
861.54	1656.81
861.72	1769.44
861.90	1753.06
862.08	1726.44
862.26	1621.99
862.44	1667.05
862.62	1597.42
862.80	1771.49
862.98	1751.01
863.15	1640.42
863.33	1769.44
863.51	1699.81
863.69	1626.09
863.87	1744.87
864.05	1691.62
864.23	1695.72
864.41	1646.57
864.59	1669.09
864.76	1720.29
864.94	1658.85
865.12	1665.00
865.30	1636.33
865.48	1652.71
865.66	1662.95
865.84	1669.09
866.02	1742.82
866.19	1673.19
866.37	1714.15
866.55	1677.29
866.73	1644.52
866.91	1652.71
867.09	1814.50
867.27	1693.67
867.44	1654.76
867.62	1611.75
867.80	1742.82
867.98	1722.34
868.16	1673.19
868.34	1650.66
868.52	1650.66
868.69	1716.20
868.87	1746.92
869.05	1673.19
869.23	1703.91
869.41	1665.00
869.59	1673.19
869.76	1708.01
869.94	1744.87
870.12	1705.96
870.30	1742.82
870.48	1687.53
870.66	1675.24
870.83	1734.63
871.01	1720.29
871.19	1806.31
871.37	1712.10
871.55	1695.72
871.73	1621.99
871.90	1673.19
872.08	1617.90
872.26	1665.00
872.44	1689.57
872.62	1699.81
872.79	1722.34
872.97	1681.38
873.15	1632.23
873.33	1697.77
873.51	1720.29
873.68	1642.47
873.86	1701.86
874.04	1798.12
874.22	1683.43
874.40	1705.96
874.57	1710.05
874.75	1716.20
874.93	1744.87
875.11	1640.42
875.29	1705.96
875.46	1607.66
875.64	1642.47
875.82	1673.19
876.00	1697.77
876.17	1697.77
876.35	1718.25
876.53	1685.48
876.71	1685.48
876.89	1699.81
877.06	1761.25
877.24	1660.90
877.42	1691.62
877.60	1597.42
877.77	1609.70
877.95	1646.57
878.13	1703.91
878.31	1634.28
878.48	1699.81
878.66	1662.95
878.84	1728.49
879.02	1648.61
879.19	1693.67
879.37	1611.75
879.55	1679.33
879.73	1626.09
879.90	1712.10
880.08	1681.38
880.26	1730.53
880.44	1640.42
880.61	1681.38
880.79	1611.75
880.97	1689.57
881.15	1660.90
881.32	1630.18
881.50	1640.42
881.68	1697.77
881.85	1712.10
882.03	1667.05
882.21	1677.29
882.39	1730.53
882.56	1667.05
882.74	1730.53
882.92	1765.35
883.09	1662.95
883.27	1705.96
883.45	1587.18
883.63	1794.02
883.80	1687.53
883.98	1593.32
884.16	1613.80
884.33	1695.72
884.51	1628.14
884.69	1738.73
884.87	1591.27
885.04	1714.15
885.22	1669.09
885.40	1644.52
885.57	1705.96
885.75	1712.10
885.93	1748.97
886.10	1720.29
886.28	1652.71
886.46	1714.15
886.63	1705.96
886.81	1734.63
886.99	1757.16
887.16	1621.99
887.34	1669.09
887.52	1701.86
887.69	1652.71
887.87	1671.14
888.05	1812.45
888.22	1648.61
888.40	1726.44
888.58	1687.53
888.75	1603.56
888.93	1624.04
889.11	1681.38
889.28	1722.34
889.46	1671.14
889.64	1679.33
889.81	1681.38
889.99	1705.96
890.17	1650.66
890.34	1665.00
890.52	1660.90
890.70	1679.33
890.87	1701.86
891.05	1656.81
891.22	1757.16
891.40	1546.22
891.58	1705.96
891.75	1732.58
891.93	1681.38
892.11	1652.71
892.28	1710.05
892.46	1767.40
892.63	1683.43
892.81	1718.25
892.99	1736.68
893.16	1679.33
893.34	1648.61
893.52	1665.00
893.69	1734.63
893.87	1693.67
894.04	1695.72
894.22	1595.37
894.40	1628.14
894.57	1755.11
894.75	1744.87
894.92	1695.72
895.10	1589.22
895.28	1662.95
895.45	1775.59
895.63	1748.97
895.80	1613.80
895.98	1632.23
896.16	1660.90
896.33	1783.78
896.51	1599.46
896.68	1718.25
896.86	1726.44
897.04	1677.29
897.21	1744.87
897.39	1652.71
897.56	1624.04
897.74	1611.75
897.91	1685.48
898.09	1736.68
898.27	1660.90
898.44	1712.10
898.62	1703.91
898.79	1665.00
898.97	1767.40
899.14	1673.19
899.32	1644.52
899.49	1703.91
899.67	1685.48
899.85	1587.18
900.02	1751.01
900.20	1585.13
900.37	1646.57
900.55	1601.51
900.72	1636.33
900.90	1656.81
901.07	1591.27
901.25	1736.68
901.43	1771.49
901.60	1660.90
901.78	1648.61
901.95	1652.71
902.13	1673.19
902.30	1726.44
902.48	1630.18
902.65	1562.60
902.83	1593.32
903.00	1667.05
903.18	1685.48
903.35	1640.42
903.53	1703.91
903.70	1722.34
903.88	1677.29
904.05	1650.66
904.23	1671.14
904.40	1677.29
904.58	1597.42
904.75	1689.57
904.93	1656.81
905.10	1710.05
905.28	1773.54
905.45	1665.00
905.63	1724.39
905.80	1660.90
905.98	1742.82
906.15	1677.29
906.33	1613.80
906.50	1697.77
906.68	1693.67
906.85	1697.77
907.03	1607.66
907.20	1662.95
907.38	1679.33
907.55	1703.91
907.73	1667.05
907.90	1613.80
908.08	1736.68
908.25	1712.10
908.43	1603.56
908.60	1626.09
908.78	1681.38
908.95	1681.38
909.13	1744.87
909.30	1599.46
909.47	1642.47
909.65	1679.33
909.82	1667.05
910.00	1658.85
910.17	1720.29
910.35	1662.95
910.52	1632.23
910.70	1648.61
910.87	1726.44
911.05	1564.65
911.22	1646.57
911.39	1687.53
911.57	1660.90
911.74	1609.70
911.92	1685.48
912.09	1685.48
912.27	1751.01
912.44	1667.05
912.61	1601.51
912.79	1656.81
912.96	1669.09
913.14	1611.75
913.31	1724.39
913.49	1613.80
913.66	1644.52
913.83	1632.23
914.01	1648.61
914.18	1605.61
914.36	1685.48
914.53	1632.23
914.70	1679.33
914.88	1613.80
915.05	1726.44
915.23	1591.27
915.40	1646.57
915.58	1677.29
915.75	1619.94
915.92	1660.90
916.10	1697.77
916.27	1734.63
916.44	1636.33
916.62	1648.61
916.79	1665.00
916.97	1597.42
917.14	1736.68
917.31	1673.19
917.49	1677.29
917.66	1662.95
917.84	1693.67
918.01	1540.07
918.18	1740.77
918.36	1689.57
918.53	1687.53
918.70	1617.90
918.88	1656.81
919.05	1665.00
919.23	1644.52
919.40	1675.24
919.57	1652.71
919.75	1624.04
919.92	1605.61
920.09	1714.15
920.27	1679.33
920.44	1603.56
920.61	1746.92
920.79	1665.00
920.96	1642.47
921.13	1652.71
921.31	1673.19
921.48	1607.66
921.65	1667.05
921.83	1695.72
922.00	1673.19
922.17	1652.71
922.35	1619.94
922.52	1644.52
922.69	1679.33
922.87	1732.58
923.04	1624.04
923.21	1677.29
923.39	1841.12
923.56	1642.47
923.73	1617.90
923.91	1587.18
924.08	1697.77
924.25	1650.66
924.43	1628.14
924.60	1687.53
924.77	1667.05
924.95	1607.66
925.12	1683.43
925.29	1583.08
925.47	1697.77
925.64	1738.73
925.81	1591.27
925.98	1710.05
926.16	1665.00
926.33	1705.96
926.50	1566.70
926.68	1640.42
926.85	1613.80
927.02	1574.89
927.19	1632.23
927.37	1710.05
927.54	1613.80
927.71	1681.38
927.89	1609.70
928.06	1660.90
928.23	1656.81
928.40	1650.66
928.58	1652.71
928.75	1595.37
928.92	1632.23
929.09	1589.22
929.27	1667.05
929.44	1705.96
929.61	1685.48
929.79	1640.42
929.96	1646.57
930.13	1656.81
930.30	1695.72
930.48	1634.28
930.65	1650.66
930.82	1669.09
930.99	1632.23
931.17	1652.71
931.34	1611.75
931.51	1640.42
931.68	1630.18
931.85	1730.53
932.03	1636.33
932.20	1603.56
932.37	1677.29
932.54	1648.61
932.72	1654.76
932.89	1581.03
933.06	1673.19
933.23	1695.72
933.41	1656.81
933.58	1667.05
933.75	1693.67
933.92	1556.46
934.09	1599.46
934.27	1605.61
934.44	1585.13
934.61	1703.91
934.78	1701.86
934.95	1603.56
935.13	1710.05
935.30	1636.33
935.47	1667.05
935.64	1619.94
935.81	1597.42
935.99	1613.80
936.16	1609.70
936.33	1593.32
936.50	1583.08
936.67	1619.94
936.85	1644.52
937.02	1660.90
937.19	1654.76
937.36	1634.28
937.53	1755.11
937.71	1660.90
937.88	1675.24
938.05	1603.56
938.22	1595.37
938.39	1558.50
938.56	1560.55
938.74	1634.28
938.91	1660.90
939.08	1695.72
939.25	1578.98
939.42	1687.53
939.59	1619.94
939.77	1605.61
939.94	1697.77
940.11	1677.29
940.28	1658.85
940.45	1587.18
940.62	1591.27
940.79	1671.14
940.97	1597.42
941.14	1628.14
941.31	1681.38
941.48	1660.90
941.65	1685.48
941.82	1632.23
941.99	1669.09
942.17	1595.37
942.34	1611.75
942.51	1656.81
942.68	1701.86
942.85	1669.09
943.02	1597.42
943.19	1624.04
943.36	1621.99
943.54	1589.22
943.71	1673.19
943.88	1675.24
944.05	1613.80
944.22	1648.61
944.39	1599.46
944.56	1669.09
944.73	1611.75
944.90	1634.28
945.08	1574.89
945.25	1615.85
945.42	1638.38
945.59	1589.22
945.76	1621.99
945.93	1662.95
946.10	1611.75
946.27	1591.27
946.44	1671.14
946.61	1636.33
946.78	1630.18
946.96	1615.85
947.13	1677.29
947.30	1585.13
947.47	1599.46
947.64	1712.10
947.81	1681.38
947.98	1621.99
948.15	1705.96
948.32	1644.52
948.49	1662.95
948.66	1581.03
948.83	1615.85
949.00	1718.25
949.17	1650.66
949.35	1550.31
949.52	1619.94
949.69	1611.75
949.86	1624.04
950.03	1593.32
950.20	1605.61
950.37	1646.57
950.54	1648.61
950.71	1671.14
950.88	1568.74
951.05	1605.61
951.22	1566.70
951.39	1662.95
951.56	1603.56
951.73	1601.51
951.90	1615.85
952.07	1660.90
952.24	1564.65
952.41	1599.46
952.58	1681.38
952.75	1685.48
952.92	1630.18
953.09	1615.85
953.26	1609.70
953.43	1611.75
953.60	1607.66
953.77	1597.42
953.94	1701.86
954.11	1726.44
954.28	1660.90
954.45	1581.03
954.62	1509.35
954.79	1628.14
954.96	1552.36
955.13	1669.09
955.30	1587.18
955.47	1574.89
955.64	1624.04
955.81	1646.57
955.98	1632.23
956.15	1662.95
956.32	1611.75
956.49	1669.09
956.66	1677.29
956.83	1591.27
957.00	1587.18
957.17	1677.29
957.34	1675.24
957.51	1636.33
957.68	1679.33
957.85	1662.95
958.02	1683.43
958.19	1638.38
958.36	1613.80
958.53	1665.00
958.70	1574.89
958.87	1583.08
959.04	1562.60
959.21	1566.70
959.38	1538.02
959.55	1636.33
959.72	1703.91
959.89	1540.07
960.06	1710.05
960.23	1628.14
960.39	1677.29
960.56	1595.37
960.73	1611.75
960.90	1593.32
961.07	1593.32
961.24	1593.32
961.41	1619.94
961.58	1652.71
961.75	1662.95
961.92	1703.91
962.09	1634.28
962.26	1646.57
962.43	1626.09
962.60	1660.90
962.76	1621.99
962.93	1656.81
963.10	1572.84
963.27	1578.98
963.44	1583.08
963.61	1646.57
963.78	1644.52
963.95	1607.66
964.12	1619.94
964.29	1566.70
964.46	1687.53
964.62	1640.42
964.79	1693.67
964.96	1513.45
965.13	1630.18
965.30	1560.55
965.47	1693.67
965.64	1669.09
965.81	1587.18
965.98	1693.67
966.14	1689.57
966.31	1679.33
966.48	1568.74
966.65	1611.75
966.82	1640.42
966.99	1597.42
967.16	1609.70
967.33	1708.01
967.49	1597.42
967.66	1652.71
967.83	1652.71
968.00	1660.90
968.17	1662.95
968.34	1646.57
968.51	1595.37
968.67	1576.94
968.84	1671.14
969.01	1632.23
969.18	1638.38
969.35	1609.70
969.52	1611.75
969.68	1529.83
969.85	1652.71
970.02	1619.94
970.19	1611.75
970.36	1654.76
970.53	1601.51
970.69	1591.27
970.86	1626.09
971.03	1615.85
971.20	1665.00
971.37	1630.18
971.54	1660.90
971.70	1646.57
971.87	1597.42
972.04	1531.88
972.21	1650.66
972.38	1564.65
972.55	1636.33
972.71	1544.17
972.88	1570.79
973.05	1546.22
973.22	1603.56
973.39	1720.29
973.55	1665.00
973.72	1630.18
973.89	1630.18
974.06	1626.09
974.23	1654.76
974.39	1603.56
974.56	1560.55
974.73	1611.75
974.90	1619.94
975.06	1615.85
975.23	1662.95
975.40	1605.61
975.57	1646.57
975.74	1650.66
975.90	1693.67
976.07	1644.52
976.24	1599.46
976.41	1658.85
976.57	1581.03
976.74	1632.23
976.91	1601.51
977.08	1601.51
977.24	1556.46
977.41	1578.98
977.58	1642.47
977.75	1583.08
977.92	1607.66
978.08	1667.05
978.25	1658.85
978.42	1677.29
978.58	1665.00
978.75	1572.84
978.92	1654.76
979.09	1644.52
979.25	1593.32
979.42	1640.42
979.59	1587.18
979.76	1599.46
979.92	1562.60
980.09	1665.00
980.26	1591.27
980.43	1650.66
980.59	1671.14
980.76	1656.81
980.93	1460.20
981.09	1599.46
981.26	1605.61
981.43	1603.56
981.60	1665.00
981.76	1544.17
981.93	1607.66
982.10	1589.22
982.26	1597.42
982.43	1667.05
982.60	1589.22
982.77	1601.51
982.93	1693.67
983.10	1605.61
983.27	1718.25
983.43	1628.14
983.60	1589.22
983.77	1603.56
983.93	1533.93
984.10	1599.46
984.27	1556.46
984.43	1650.66
984.60	1642.47
984.77	1607.66
984.93	1568.74
985.10	1609.70
985.27	1650.66
985.43	1578.98
985.60	1619.94
985.77	1615.85
985.93	1728.49
986.10	1505.26
986.27	1613.80
986.43	1662.95
986.60	1572.84
986.77	1675.24
986.93	1589.22
987.10	1570.79
987.27	1583.08
987.43	1656.81
987.60	1658.85
987.77	1521.64
987.93	1615.85
988.10	1497.07
988.27	1642.47
988.43	1656.81
988.60	1646.57
988.76	1570.79
988.93	1650.66
989.10	1558.50
989.26	1652.71
989.43	1542.12
989.60	1662.95
989.76	1669.09
989.93	1599.46
990.09	1560.55
990.26	1613.80
990.43	1628.14
990.59	1644.52
990.76	1665.00
990.92	1630.18
991.09	1605.61
991.26	1472.49
991.42	1505.26
991.59	1609.70
991.76	1578.98
991.92	1710.05
992.09	1621.99
992.25	1634.28
992.42	1658.85
992.58	1619.94
992.75	1634.28
992.92	1628.14
993.08	1613.80
993.25	1617.90
993.41	1648.61
993.58	1673.19
993.75	1562.60
993.91	1687.53
994.08	1611.75
994.24	1550.31
994.41	1587.18
994.57	1576.94
994.74	1617.90
994.91	1624.04
995.07	1665.00
995.24	1644.52
995.40	1568.74
995.57	1576.94
995.73	1648.61
995.90	1587.18
996.06	1644.52
996.23	1583.08
996.40	1591.27
996.56	1619.94
996.73	1621.99
996.89	1671.14
997.06	1605.61
997.22	1652.71
997.39	1486.83
997.55	1589.22
997.72	1673.19
997.88	1642.47
998.05	1605.61
998.21	1699.81
998.38	1621.99
998.54	1603.56
998.71	1581.03
998.87	1705.96
999.04	1630.18
999.21	1712.10
999.37	1710.05
999.54	1705.96
999.70	1529.83
999.87	1667.05
1000.03	1599.46
1000.20	1597.42
1000.36	1630.18
1000.53	1613.80
1000.69	1591.27
1000.86	1556.46
1001.02	1621.99
1001.19	1652.71
1001.35	1619.94
1001.52	1628.14
1001.68	1597.42
1001.84	1562.60
1002.01	1644.52
1002.17	1611.75
1002.34	1601.51
1002.50	1583.08
1002.67	1599.46
1002.83	1597.42
1003.00	1601.51
1003.16	1654.76
1003.33	1570.79
1003.49	1722.34
1003.66	1624.04
1003.82	1611.75
1003.99	1611.75
1004.15	1554.41
1004.32	1595.37
1004.48	1644.52
1004.64	1564.65
1004.81	1658.85
1004.97	1646.57
1005.14	1679.33
1005.30	1636.33
1005.47	1642.47
1005.63	1660.90
1005.80	1550.31
1005.96	1591.27
1006.12	1624.04
1006.29	1609.70
1006.45	1665.00
1006.62	1654.76
1006.78	1652.71
1006.95	1636.33
1007.11	1587.18
1007.27	1548.26
1007.44	1611.75
1007.60	1660.90
1007.77	1681.38
1007.93	1621.99
1008.09	1591.27
1008.26	1595.37
1008.42	1673.19
1008.59	1669.09
1008.75	1626.09
1008.92	1669.09
1009.08	1685.48
1009.24	1617.90
1009.41	1578.98
1009.57	1599.46
1009.73	1730.53
1009.90	1617.90
1010.06	1638.38
1010.23	1712.10
1010.39	1605.61
1010.55	1517.54
1010.72	1628.14
1010.88	1574.89
1011.05	1660.90
1011.21	1619.94
1011.37	1613.80
1011.54	1710.05
1011.70	1662.95
1011.86	1599.46
1012.03	1533.93
1012.19	1624.04
1012.36	1546.22
1012.52	1638.38
1012.68	1570.79
1012.85	1660.90
1013.01	1599.46
1013.17	1566.70
1013.34	1558.50
1013.50	1693.67
1013.66	1511.40
1013.83	1609.70
1013.99	1572.84
1014.15	1599.46
1014.32	1654.76
1014.48	1599.46
1014.64	1546.22
1014.81	1570.79
1014.97	1607.66
1015.13	1613.80
1015.30	1603.56
1015.46	1529.83
1015.62	1689.57
1015.79	1593.32
1015.95	1662.95
1016.11	1587.18
1016.28	1665.00
1016.44	1578.98
1016.60	1533.93
1016.77	1603.56
1016.93	1603.56
1017.09	1660.90
1017.26	1638.38
1017.42	1601.51
1017.58	1572.84
1017.74	1652.71
1017.91	1578.98
1018.07	1679.33
1018.23	1603.56
1018.40	1613.80
1018.56	1556.46
1018.72	1591.27
1018.88	1611.75
1019.05	1542.12
1019.21	1603.56
1019.37	1675.24
1019.54	1599.46
1019.70	1621.99
1019.86	1640.42
1020.02	1554.41
1020.19	1535.98
1020.35	1593.32
1020.51	1572.84
1020.68	1630.18
1020.84	1574.89
1021.00	1558.50
1021.16	1636.33
1021.33	1611.75
1021.49	1595.37
1021.65	1437.67
1021.81	1609.70
1021.98	1621.99
1022.14	1601.51
1022.30	1546.22
1022.46	1640.42
1022.63	1583.08
1022.79	1632.23
1022.95	1591.27
1023.11	1578.98
1023.27	1601.51
1023.44	1560.55
1023.60	1574.89
1023.76	1593.32
1023.92	1550.31
1024.09	1630.18
1024.25	1636.33
1024.41	1693.67
1024.57	1583.08
1024.74	1550.31
1024.90	1529.83
1025.06	1693.67
1025.22	1605.61
1025.38	1601.51
1025.55	1597.42
1025.71	1605.61
1025.87	1644.52
1026.03	1578.98
1026.19	1626.09
1026.36	1566.70
1026.52	1662.95
1026.68	1617.90
1026.84	1542.12
1027.00	1601.51
1027.17	1619.94
1027.33	1665.00
1027.49	1662.95
1027.65	1630.18
1027.81	1595.37
1027.97	1638.38
1028.14	1636.33
1028.30	1646.57
1028.46	1589.22
1028.62	1615.85
1028.78	1701.86
1028.94	1599.46
1029.11	1503.21
1029.27	1701.86
1029.43	1564.65
1029.59	1570.79
1029.75	1570.79
1029.91	1574.89
1030.08	1624.04
1030.24	1513.45
1030.40	1613.80
1030.56	1607.66
1030.72	1628.14
1030.88	1669.09
1031.04	1628.14
1031.21	1578.98
1031.37	1611.75
1031.53	1640.42
1031.69	1628.14
1031.85	1640.42
1032.01	1560.55
1032.17	1679.33
1032.34	1720.29
1032.50	1648.61
1032.66	1589.22
1032.82	1593.32
1032.98	1611.75
1033.14	1671.14
1033.30	1554.41
1033.46	1669.09
1033.62	1619.94
1033.79	1630.18
1033.95	1658.85
1034.11	1587.18
1034.27	1619.94
1034.43	1570.79
1034.59	1515.50
1034.75	1628.14
1034.91	1611.75
1035.07	1613.80
1035.23	1660.90
1035.40	1703.91
1035.56	1652.71
1035.72	1556.46
1035.88	1658.85
1036.04	1529.83
1036.20	1585.13
>>>>>End Processed Spectral Data<<<<<
